Timestamp,Accelerometer_X,Accelerometer_Y,Accelerometer_Z,Gyroscope_X,Gyroscope_Y,Gyroscope_Z,Roll,Pitch,Yaw,Quat_w,Quat_x,Quat_y,Quat_z
0.0,-0.06221998418713438,-0.08834791398750048,-9.859304632216373,-0.009997721326257258,-0.023100416212565266,-0.011577196518904955,-1.7402885215885817,0.0021761772463317897,0.013216080334218727,0.7644094824790955,0.004349798429757357,-0.005092018283903599,-0.6446963548660278
0.02,-0.043796088905273735,-0.1498898422414368,-9.854715258877475,-0.002937767705828934,-0.01709458356338007,-0.011859618687069976,-1.7402017334715716,0.0021881250474763297,0.01324962324163429,0.7643814605010221,0.0043585450276816895,-0.005107587910867379,-0.6447294115979183
0.04,0.0034812453792623195,-0.15661177920548175,-9.915652602048626,-0.007833089495482523,-0.01898473375306839,-0.011413019239148666,-1.7401087887678122,0.0021722159627697315,0.0133029738238042,0.7643513710378066,0.004383825937696371,-0.005118909915934055,-0.6447648578059885
0.06,0.020961728908253967,-0.16467596812147323,-9.882537576961385,-0.013968398968562154,-0.02489652826617544,-0.009864013916505123,-1.7400142460483499,0.00215951647014563,0.013337572003470377,0.764320805100431,0.00440090134547543,-0.005125416778089723,-0.6448009467796355
0.08,-0.014600563042339927,-0.14702904478249607,-9.854166355048559,-0.01133671396217289,-0.01985155564721222,-0.011633611189301245,-1.739914835571971,0.002156593798882271,0.013315048005410746,0.7642887877628067,0.004392981760909401,-0.005117256109027294,-0.6448389936981117
0.1,-0.03886167346327393,-0.0806612452423131,-9.898368948477286,-0.006929171623455153,-0.015986328737603292,-0.010771304272391178,-1.739815425095592,0.002153671127618912,0.013292524007351115,0.7642567704251825,0.0043850621763433725,-0.005109095439964865,-0.6448770406165879
0.12,0.007844678432008055,-0.1014951296452514,-9.884820924978536,-0.010089231260058422,-0.02290945232503311,-0.010590401400238234,-1.739708572943723,0.0021459535765368954,0.013318977003239732,0.7642222198991091,0.004397385131475385,-0.00511491184005398,-0.6449178048617454
0.14,0.02453325096513323,-0.1704175874749111,-9.860473769433845,-0.006674064910910729,-0.020564101275524594,-0.011330530526793104,-1.7396015951747976,0.00213815508686937,0.013346256741145373,0.7641876266122789,0.0044100497849590215,-0.005120964176026678,-0.6449586149759521
0.16,-0.006840379950525403,-0.16485082018389874,-9.894392776720872,-0.009840729021544738,-0.019418830484034224,-0.01184041515890674,-1.7394952659196252,0.0021336867322698703,0.013356813802363511,0.7641532949398987,0.004415252941154093,-0.005122894386685536,-0.6449992187992255
0.18,-0.012866599207957553,-0.11920151570040709,-9.875936215090903,-0.015425830337242668,-0.022906175979923244,-0.011414515635719416,-1.7393910864840463,0.002140257757458984,0.013311935280560397,0.7641198305180092,0.004395721274082968,-0.005111159774162702,-0.6450391387691674
0.2,-0.04237494581426842,-0.11742026815046261,-9.856948679920594,-0.0087861036559124,-0.020627619974591112,-0.010473370916469372,-1.7392869070484671,0.002146828782648098,0.013267056758757284,0.7640863660961197,0.004376189607011843,-0.0050994251616398685,-0.6450790587391093
0.22,-0.035213289841823536,-0.13617519387425067,-9.884072687358037,-0.005088178129626461,-0.017089397125927816,-0.011136274739593556,-1.7391859782709267,0.002143815642926484,0.013285009706813644,0.764053768735416,0.00438376170962134,-0.005104287444590832,-0.6451175813861638
0.24,-0.00821246154636355,-0.14142036769388683,-9.885619049686927,-0.009999039496019296,-0.02107821113254148,-0.010803595333491118,-1.7390863114445494,0.0021370817956081673,0.013327354715043812,0.7640215079800576,0.004401855876770555,-0.0051155928757603665,-0.6451555615728235
0.26,0.005530700547645922,-0.14826885418180852,-9.860340415188407,-0.013301761486963732,-0.019848435666879,-0.012106932177920951,-1.7389841276213471,0.0021375215126100437,0.013348827188270311,0.7639884849593576,0.0044096553334726,-0.0051229115556094065,-0.6451945285471412
0.28,-0.026504846154573682,-0.1341767568514334,-9.856996922612376,-0.00806662748618407,-0.020164067196369706,-0.010603513549510477,-1.7388789759468006,0.002146419751411128,0.013345688354696888,0.7639545631333046,0.004405316050094097,-0.005125529361325694,-0.645234659066462
0.3,-0.0072663049638753245,-0.11495087321923343,-9.900853876013466,-0.009256453813481403,-0.020748206858547617,-0.010845976326672654,-1.7387738242722541,0.0021553179902122116,0.013342549521123464,0.7639206413072516,0.004400976766715593,-0.005128147167041982,-0.6452747895857828
0.32,-0.01852671838003162,-0.11921794474276931,-9.858672231652116,-0.009246818373030556,-0.01947302502931357,-0.010629577859497981,-1.7386617875207024,0.0021560696276241155,0.013355319590624682,0.7638844773765981,0.004405324032539562,-0.005132801742089596,-0.6453175567842678
0.34,-0.006945666625403601,-0.15559322701753228,-9.86443289525308,-0.00741370833781693,-0.021647419441898127,-0.01280893707356144,-1.7385494131060508,0.002156421733313025,0.013368869876458175,0.7638482034869727,0.004410097310611332,-0.005137556205903261,-0.645360453292746
0.36,-0.0061477726751118815,-0.15180641148171287,-9.88043360931372,-0.007486972958597703,-0.0202876007258084,-0.010077171103789771,-1.7384387769821021,0.0021538993087556746,0.013376798298740175,0.7638124963526348,0.004413655741838469,-0.005139394971118702,-0.6454027073643621
0.38,-0.01675446486131525,-0.11558162894391957,-9.87193821388299,-0.01293341811932181,-0.020807673563990485,-0.011648411114839505,-1.7383359957832505,0.0021383875609884044,0.013359322847534534,0.763779350251572,0.004411724567125291,-0.005128058383065787,-0.645442058415544
0.4,-0.04531209385320863,-0.12991805827646832,-9.860935496836383,-0.00706940296531131,-0.017878606588247355,-0.01128210551361026,-1.7382332145843986,0.0021228758132211343,0.013341847396328892,0.763746204150509,0.004409793392412112,-0.005116721795012873,-0.6454814094667259
0.42,-0.003193549041758059,-0.1513228614012845,-9.883790487482376,-0.005257713521865369,-0.020833252773868566,-0.010738674231001683,-1.7381141041156596,0.0021287112571672807,0.013362392470811746,0.7637076913937009,0.004415449181556577,-0.005125844222054905,-0.6455267946852846
0.44,0.024411587647592395,-0.15932835914092522,-9.887428733632028,-0.01086035812285629,-0.021523568070794575,-0.012848532437830924,-1.7379938285200995,0.002136069866924562,0.013385650387603209,0.7636687957150237,0.004421646316097355,-0.0051364264416888855,-0.6455726104540332
0.46,-0.003827123472976427,-0.1418990502474166,-9.860072226962215,-0.012400624959510644,-0.020221718799183757,-0.01145058355221805,-1.7378683018605026,0.002140169544682376,0.01339691390544463,0.7636282411982825,0.0044243017327212746,-0.005141904576685198,-0.6456204844361818
0.48,-0.013189028014884831,-0.11107651696669008,-9.861104767292613,-0.008403851482315792,-0.01999351610293199,-0.01196341099973503,-1.7377359700967945,0.002140045817166169,0.013392633310124878,0.7635855369142469,0.004422367268325399,-0.005140768085177707,-0.6456710257551543
0.5,-0.026290361852777555,-0.12182495749568048,-9.872755676037661,-0.009210853649097565,-0.020662141636162038,-0.012722064914047928,-1.7376036383330862,0.0021399220896499618,0.013388352714805126,0.7635428326302112,0.004420432803929524,-0.005139631593670217,-0.6457215670741268
0.52,-0.015863925873479665,-0.15027749960965095,-9.875211798950968,-0.009683529380989283,-0.019320659896763674,-0.01132977686032949,-1.7374770086404063,0.002137741335945184,0.013392528948392969,0.7635019586394282,0.004422405776502641,-0.005140427933019356,-0.6457699255811211
0.54,-0.025397285303772717,-0.13544443058857664,-9.866978057095261,-0.008041454797332008,-0.020569091800172797,-0.0114908166664851,-1.7373531275192,0.002134569033121721,0.013400781630446458,0.7634619669056,0.004426262252409087,-0.005142155955563928,-0.6458172319064248
0.56,-0.003202630030457773,-0.14678832776792045,-9.893309826871036,-0.010285508526094576,-0.021170013275629222,-0.011515341271400704,-1.7372332109170345,0.0021298929039288705,0.01340100515585808,0.7634232390897865,0.004427549762569119,-0.0051407082946012,-0.6458630232901653
0.58,-0.006358846459948853,-0.12256737877694858,-9.8678796566853,-0.01139828169652101,-0.01950609581511481,-0.01091970590243741,-1.7371186427369625,0.0021231880045130018,0.013390396769925038,0.7633862163905241,0.0044253715526723835,-0.0051349764075679,-0.6459067709084851
0.6,-0.014026942444921649,-0.12750222430804606,-9.870188589643588,-0.007690660805657735,-0.01994345760169292,-0.011106879720704678,-1.7370040745568904,0.0021164831050971326,0.013379788383991995,0.7633491936912615,0.004423193342775648,-0.0051292445205346,-0.645950518526805
0.62,-0.008664942198597333,-0.16013603929211112,-9.8808479421279,-0.007346914977054386,-0.020738688944017186,-0.010991011811968158,-1.736881932384347,0.0021224953734423854,0.013386026336089641,0.7633097708549829,0.004423318484701213,-0.005133824360090821,-0.6459971284475413
0.64,-0.008049034593658907,-0.1418127409753059,-9.887428381195923,-0.011455560442754904,-0.02093738632887101,-0.011046230314666925,-1.7367591082717793,0.0021296526582004005,0.013393781082956566,0.7632701319174205,0.004423651013655906,-0.0051393326372056805,-0.6460439960815757
0.66,-0.025290262725294436,-0.13267248697774228,-9.86667198053665,-0.01185515789139538,-0.020179686977287423,-0.010845898831930784,-1.736636209978149,0.002136303409077284,0.013399802284106232,0.7632304422891316,0.004423484681369218,-0.005144087579765807,-0.6460908728058055
0.68,-0.02619420012314216,-0.12586981635060066,-9.87635757952219,-0.008361712153825874,-0.022316287580753092,-0.01089441092808942,-1.7365132052665244,0.002142227501184949,0.013403336591004181,0.7631906799414013,0.004422602697259076,-0.0051477618104905695,-0.6461377625705652
0.7,-0.011424785161917785,-0.13397981909463605,-9.876827468150166,-0.007881618739269021,-0.01969511349726305,-0.011055176313669677,-1.7363902005548997,0.002148151593292614,0.013406870897902129,0.7631509175936709,0.004421720713148935,-0.005151436041215331,-0.6461846523353248
0.72,-0.016580150419925038,-0.12771929901806314,-9.878452134402508,-0.01090890229121517,-0.01992131972804301,-0.011054959108738688,-1.7362807847401251,0.0021486227898106797,0.013407081219191371,0.7631155560680866,0.004421367078401654,-0.005151925657334818,-0.6462263919495894
0.74,-0.0047534452513999246,-0.1414450013144001,-9.873263055731536,-0.008505702434718656,-0.02107748849640725,-0.010545725464097159,-1.736178652306897,0.0021461713414996377,0.013405509949545726,0.7630825532966499,0.0044212966285252266,-0.005150708382637146,-0.6462653711844433
0.76,-0.02187496520812296,-0.1423222857977763,-9.873799620928866,-0.009878084650740838,-0.02163316509321204,-0.012083786823349105,-1.7360727043808215,0.0021458055653640613,0.013399017635979688,0.7630483342169614,0.004418665106492734,-0.005148704750147287,-0.6463058145634872
0.78,-0.008385203775770053,-0.13202347813240664,-9.879624830560754,-0.010948876648839482,-0.01973395823772214,-0.011284756892372084,-1.7359609635546263,0.002148606376371743,0.013385053911233584,0.7630122684683103,0.004412145217794686,-0.005145507224147203,-0.6463484808902326
0.8,-0.016040899464137885,-0.1266939905158941,-9.866511106206467,-0.009334387499327636,-0.02116046925814703,-0.010829568216099096,-1.7358492227284308,0.0021514071873794255,0.013371090186487482,0.762976202719659,0.004405625329096639,-0.0051423096981471185,-0.6463911472169779
0.82,-0.01509698247923687,-0.1562533275312282,-9.875791245366614,-0.0067499968701639915,-0.020377348447067553,-0.011048798434238935,-1.7357359700005128,0.0021557277198765022,0.013377280373202339,0.7629395860238908,0.004406298487554389,-0.005146208298666214,-0.646434316661232
0.84,0.006932900813287365,-0.16265195113515662,-9.884862305494602,-0.010894894617202574,-0.021226844518350628,-0.011592449817598282,-1.7356225240860996,0.002160242438056165,0.01338604576930992,0.7629028989296693,0.004407890753086405,-0.0051510136220167336,-0.6464775503924081
0.86,-0.02466758247502178,-0.13764811846449243,-9.8758468807364,-0.009776504545340582,-0.021091232229519287,-0.011373326131660906,-1.7355094983196107,0.0021635256591316667,0.013394812407295363,0.7628663478179256,0.004409882581025011,-0.005155348822516796,-0.6465206294081546
0.88,-0.019005356250648364,-0.12510577633100398,-9.878804719341122,-0.00847235864264183,-0.020116412967577175,-0.010957993791695844,-1.7353993348108565,0.002158419306185075,0.01340358750557374,0.7628307230868113,0.004414596427858501,-0.005156481311098121,-0.6465626544250371
0.9,-0.020267582254811428,-0.14444536846598416,-9.886526671789026,-0.009304703119808414,-0.020383332645700823,-0.010732179764644861,-1.7352891713021026,0.0021533129532384835,0.01341236260385212,0.7627950983556969,0.004419310274691992,-0.005157613799679447,-0.6466046794419196
0.92,-0.014059452308417895,-0.13660311138540582,-9.88133325409405,-0.01007215147924315,-0.019338975613303167,-0.011491249733075743,-1.73517179690929,0.0021503796542266516,0.013424344110337433,0.7627570917662561,0.00442452509938006,-0.005160628604594909,-0.6466494000338683
0.94,0.0007674642162697545,-0.14869987317011876,-9.874139038189366,-0.008800813399457284,-0.02046850582724363,-0.011874460363448663,-1.7350533857920967,0.002147758779874089,0.013436786609058378,0.7627187427318974,0.004429811950736685,-0.005163914034196637,-0.6466945081744682
0.96,-0.014012299831410427,-0.14606548647501977,-9.879902009642484,-0.009507672538330235,-0.020633614601063176,-0.011498330782414516,-1.734932160100141,0.0021489419127001586,0.013440367468572436,0.7626795266736293,0.004430482066006033,-0.005165790822326814,-0.6467407157003515
0.98,-0.013839368758462976,-0.12597325235498508,-9.873629335858078,-0.010620251309810005,-0.02108871885358552,-0.011065691602043883,-1.7348059534566713,0.0021568569950811012,0.013428265889722724,0.7626387762435923,0.0044229819457873125,-0.005165174738366568,-0.6467888688078075
1.0,-0.013495686735043269,-0.12184656967302997,-9.876218349776583,-0.009455722766722035,-0.02054124548919722,-0.012221109149364119,-1.7346797468132016,0.0021647720774620434,0.013416164310873011,0.7625980258135554,0.004415481825568593,-0.005164558654406323,-0.6468370219152636
1.02,-0.0028346665834261178,-0.1335229989243442,-9.880393715485432,-0.007607207416439078,-0.02099244192618658,-0.012358337643746739,-1.734538494724605,0.0021702049555487276,0.013422539177720514,0.7625523409513644,0.004415789879697458,-0.005169004202425823,-0.6468908516062096
1.04,-0.014748682748646505,-0.15132810980562242,-9.879828714555309,-0.009553588175725552,-0.020163067751714298,-0.011994720338993976,-1.7343947311115024,0.0021752234811944367,0.013431998303342726,0.7625058323882344,0.0044174013463246274,-0.005174294684752696,-0.6469456288848425
1.06,-0.016629846062817095,-0.15315504357461063,-9.877722999796381,-0.011060091826740911,-0.01994331444235385,-0.011213764938705538,-1.7342498151654349,0.0021803988635994385,0.013437041593576685,0.7624589591171268,0.004417275225662196,-0.0051782189428021845,-0.6470008547708026
1.08,-0.01352797596976161,-0.132768250516057,-9.871132674217224,-0.009161892944388092,-0.02021335163488984,-0.011093515380099415,-1.7341026742575931,0.0021858771101106026,0.013433558645962513,0.762411381656055,0.004413794115238954,-0.005179505250810816,-0.6470569468423055
1.1,-0.024280690672992475,-0.13168317244222372,-9.884617595452324,-0.00909233428867944,-0.021748334412696305,-0.011764883668110375,-1.7339555333497516,0.0021913553566217663,0.01343007569834834,0.7623638041949833,0.004410313004815711,-0.005180791558819446,-0.6471130389138083
1.12,0.003252377703545555,-0.13710938992252486,-9.871625551613429,-0.009917530121021373,-0.02071650019149199,-0.01198651033076441,-1.7338187301597074,0.002197347279644357,0.013429946529503817,0.7623195223413524,0.004407970107545667,-0.005183335015962003,-0.6471651439797159
1.14,-0.0027342178177507245,-0.12998919467642683,-9.86612338509666,-0.00937114149371749,-0.020732826614149758,-0.01172635868707102,-1.7336840729105996,0.002203445833499352,0.013430513550214301,0.7622759246018612,0.004405863484688175,-0.005186139436679155,-0.6472164214085486
1.16,-0.014271829828230878,-0.1340027817830571,-9.881377570255603,-0.009981322293884803,-0.020268077652143578,-0.010842400584123094,-1.7335521536386527,0.002205915611685549,0.013423918323682017,0.7622332439027105,0.004402209090239956,-0.005185236659633705,-0.6472667027667778
1.18,-0.013811893738553958,-0.13543180689393575,-9.872034974097271,-0.010369544832393553,-0.02008306968976873,-0.012075657107010352,-1.733425819773527,0.002200982775758516,0.013402712286958943,0.7621924339435522,0.004395397279388157,-0.005176771289310877,-0.6473149521652003
1.2,-0.0227541653349924,-0.1314898188575637,-9.877651238460556,-0.010541086802274,-0.019999346412118788,-0.011342471546371928,-1.7332994859084014,0.0021960499398314824,0.01338150625023587,0.7621516239843938,0.004388585468536359,-0.005168305918988048,-0.6473632015636228
1.22,-0.015360162514063965,-0.15168286295285413,-9.86741080671412,-0.008421237261178214,-0.020114028755359083,-0.011234051236822216,-1.7331679577517944,0.002191612582056862,0.013382738813376586,0.7621090441797255,0.004390151442741722,-0.005167303205406197,-0.6474133368010309
1.24,-0.007496021060798103,-0.12925285190513325,-9.872201673002577,-0.009525529835426122,-0.020196237382694632,-0.010657634329433598,-1.7330352986413187,0.002187283104815182,0.013388856936253841,0.7620660790263271,0.004393541513352614,-0.00516792533720341,-0.6474638826424459
1.26,-0.011681475839844697,-0.13736800338138058,-9.87137796298722,-0.011041145887009201,-0.019726960928606468,-0.011776095124823355,-1.732902993317595,0.0021834748062061937,0.013395847654193658,0.7620232167409672,0.004397096063109047,-0.005169028112074533,-0.6475142808608301
1.28,-0.010800754566812861,-0.1397241625386538,-9.866678054227314,-0.008359997385468611,-0.01996572098854381,-0.011416582545228326,-1.732771464516231,0.002180810436417202,0.013404753620721268,0.7619805802394488,0.004401011626197705,-0.005171185844746859,-0.6475643550631689
1.3,-0.01991686149954605,-0.13524511592740676,-9.884063166205813,-0.008477039381946657,-0.020985490722613794,-0.010968921452845667,-1.7326399357148672,0.00217814606662821,0.01341365958724888,0.7619379437379304,0.004404927189286363,-0.005173343577419185,-0.6476144292655076
1.32,-0.006645460782004399,-0.15069648426012944,-9.883763469805379,-0.009600336885377385,-0.02040133392127486,-0.011844104103426642,-1.7325137422279813,0.0021831237163692217,0.013408112717225537,0.7618971183559209,0.004400875929771197,-0.005173720957945552,-0.6476625186037287
1.34,-0.024645904577163345,-0.1357963098857766,-9.873885059452922,-0.010311576888326079,-0.02127955170154692,-0.011709371449164558,-1.732388910614188,0.002190052040398096,0.01339887666837506,0.7618567552737321,0.004394791087909345,-0.005173643892217125,-0.6477101012927081
1.36,-0.008699006265755885,-0.14413340352460616,-9.883518176677006,-0.007522711010943586,-0.02148853254719769,-0.010877662144087408,-1.7322720639529015,0.002195330151942654,0.013392888167907065,0.7618189472727812,0.004390498261093642,-0.005173972106148187,-0.647754620955189
1.38,-0.005647950947195188,-0.132458705577193,-9.884905652974632,-0.010541360991424952,-0.01889228926885458,-0.010728264696110207,-1.732174290802364,0.0021966664309552076,0.013394657027163942,0.7617872425478882,0.004390485988008977,-0.005175268404226906,-0.6477918240220117
1.4,-0.027961788132074637,-0.13650447063719778,-9.8757705298913,-0.008774463944772383,-0.02093478132777275,-0.01127641929112982,-1.7320765176518267,0.0021980027099677613,0.013396425886420819,0.7617555378229952,0.004390473714924313,-0.005176564702305623,-0.6478290270888344
1.42,-0.013673039245633983,-0.14687577715155686,-9.878937454471975,-0.00858993290595212,-0.02073724530078728,-0.010340824919098886,-1.7319687703842461,0.00219561935273827,0.013407624544730793,0.7617206122805467,0.0043952318384885645,-0.005179521651115416,-0.6478700471009481
1.44,-0.010548662817294024,-0.13043145562423855,-9.87753011899418,-0.008730303092358033,-0.01891735398106776,-0.01152634220177442,-1.7318583869333826,0.0021922528866442493,0.013421315521761356,0.7616848354682201,0.004401250789436919,-0.005182917513934098,-0.6479120759409437
1.46,0.0002391068031684972,-0.1138886831403853,-9.870846019105397,-0.010069515916091537,-0.0209580865641431,-0.011579071457712094,-1.7317451267736335,0.0021922006207063974,0.01343409475660906,0.7616481205605206,0.0044058408538410485,-0.0051872866728534806,-0.6479551811366722
1.48,-0.010775648682987039,-0.13965885435098568,-9.875177617418345,-0.009069271994289847,-0.021932506709384295,-0.011173371551827758,-1.7316245997794495,0.0022005203328781336,0.013444570845829824,0.7616090359365826,0.00440682141782105,-0.005194114468326256,-0.6480010053071787
1.5,-0.008915571275182214,-0.1562455474688292,-9.88611003184019,-0.007524539159754662,-0.02038811573581486,-0.01152134952728956,-1.7315040727852655,0.0022088400450498698,0.013455046935050587,0.7615699513126446,0.004407801981801052,-0.005200942263799031,-0.6480468294776852
1.52,-0.0147315604900852,-0.14265713839532848,-9.883304974332024,-0.009759386790322717,-0.021223065732701565,-0.011739934214573805,-1.7314025957823032,0.0022112077369660153,0.013456165579859347,0.7615370674404556,0.0044071969902421725,-0.005202429804025206,-0.6480854566368515
1.54,-0.027315389933493528,-0.1251188911160252,-9.86693864274453,-0.008448648036026471,-0.01973874414460348,-0.01097808312442936,-1.7313067481393583,0.002211816579523047,0.013454519056809087,0.7615060159189259,0.004406123459729516,-0.0052023392742659574,-0.6481219570460671
1.56,-0.014927960381732185,-0.148448562556801,-9.891672546757688,-0.007524917461501982,-0.0206730654315343,-0.011822999959524518,-1.7312100946083302,0.002214725055050439,0.013453959484243126,0.7614747064589162,0.004404716291525499,-0.005203478243225705,-0.6481587560887083
1.58,-0.002825864595171216,-0.13801530481194801,-9.889770055369889,-0.010543825845945059,-0.02146122777174941,-0.011803762145827321,-1.7311112275270812,0.002223949982172329,0.01345638546207072,0.7614426885137079,0.004402392713461846,-0.005207994302896943,-0.6481963753942349
1.6,-0.007289695501197451,-0.1267565485238556,-9.867661680075129,-0.009068377967794555,-0.021008512131209127,-0.011472928275861714,-1.7310123604458325,0.002233174909294219,0.013458811439898313,0.7614106705684994,0.004400069135398192,-0.005212510362568181,-0.6482339946997615
1.62,-0.017573573500226924,-0.1355403703060031,-9.884579119666954,-0.007807497154368648,-0.019576568252462505,-0.010357317643130614,-1.7309224479657748,0.002229020691599663,0.013466556324733897,0.7613814990048616,0.00440412985170443,-0.005213637491209247,-0.64826821255305
1.64,-0.008374456498951079,-0.1447318353191884,-9.884133170745176,-0.010280117841217226,-0.020116060508605472,-0.010019333838655022,-1.7308354318654562,0.00222053896862038,0.013476021618347605,0.761353248107788,0.004410255577994787,-0.0052136684648162014,-0.6483013302013002
1.66,-0.01167678840417974,-0.13904631577367785,-9.878244631688519,-0.00871023751259365,-0.020235036362635458,-0.010103338619595685,-1.7307443000064051,0.002214705529135301,0.013485091159652463,0.7613236712464677,0.004415361356301309,-0.0052145885860740895,-0.6483360101464077
1.68,-0.01939540305334751,-0.13636777671441044,-9.868356069822529,-0.010030275794100244,-0.020466119992959764,-0.011409325904723894,-1.7306404780313112,0.002217037540309566,0.013492940478138149,0.7612900060405062,0.004417322329697283,-0.005218250215666888,-0.6483755071203311
1.7,-0.017441305970794733,-0.13193164914428687,-9.878546593711526,-0.008021093850144516,-0.020397563842764893,-0.010603857479174948,-1.7305366560562172,0.0022193695514838314,0.013500789796623835,0.7612563408345447,0.0044192833030932575,-0.005221911845259687,-0.6484150040942545
1.72,-0.007996028197820347,-0.13842503318878774,-9.880690925303252,-0.010609585693986612,-0.019245905186925583,-0.01148522203941382,-1.7304482396024818,0.0022109900436801536,0.013501401589601643,0.7612276599487996,0.004422002434915615,-0.005219116487879859,-0.6484486813035006
1.74,-0.00687309368314962,-0.1524800299327344,-9.871704129110176,-0.008099455431236935,-0.01899420845346651,-0.01108455401236778,-1.7303598795848913,0.0022025712956052165,0.013501986868836182,0.7611989973224702,0.004424724344153798,-0.005216297476159238,-0.6484823371927879
1.76,-0.010272324346271377,-0.1364641126572661,-9.883205884992368,-0.009005963547938369,-0.02111176253603926,-0.012785574945570312,-1.7302682575579618,0.0021967843237617546,0.013503753646378236,0.7611692801798468,0.004427034044665047,-0.005214870533840781,-0.6485172247699144
1.78,-0.01826861177990856,-0.13629037450017584,-9.876087834105823,-0.00975073923049992,-0.020858589361568383,-0.011091127988136596,-1.7301662432526403,0.0021993818010173955,0.013509284502454606,0.7611362035045681,0.0044280305092530255,-0.005217878518361956,-0.6485560363219859
1.8,-0.01684726735095044,-0.12445421450949096,-9.875078208915719,-0.008320252447352782,-0.020626169201228527,-0.010947847477421835,-1.730064228947319,0.002201979278273036,0.013514815358530975,0.7611031268292896,0.004429026973841004,-0.005220886502883131,-0.6485948478740574
1.82,-0.0056173973167534825,-0.13538079997483657,-9.88555873770182,-0.00903133081733251,-0.02005265961985429,-0.010426569899848727,-1.7299708304724992,0.002207201493857636,0.01351499543112802,0.761072860090016,0.004427158085289558,-0.005223138871773309,-0.6486303863784665
1.84,-0.008409587037223496,-0.14259339618434955,-9.886949148828377,-0.009535182998555705,-0.021808732178086782,-0.01200964605505378,-1.7298805527568817,0.002213374421772532,0.013513237384494508,0.7610436111439363,0.004424251330780104,-0.005225117547438747,-0.648664739344974
1.86,-0.008313741353136372,-0.13905299125439619,-9.886454258307042,-0.009392599695996637,-0.018976023187675325,-0.010849179851588796,-1.7297881830153201,0.0022166566776765585,0.01351268858364884,0.7610136510023565,0.004422736574956855,-0.0052263928436817614,-0.6486998724659294
1.88,-0.020998745890919397,-0.13128572776556302,-9.877872200606824,-0.009283798296178737,-0.021186128024199453,-0.010435171429809334,-1.7296935491811312,0.0022168105071825634,0.013513448487640719,0.7609829211702797,0.004422728308081351,-0.005226906908368703,-0.648735849908122
1.9,-0.030213427729532866,-0.1273165163701166,-9.874443431100445,-0.009863873379687945,-0.0200534637377945,-0.011273384490933366,-1.729598915346942,0.0022169643366885686,0.013514208391632598,0.7609521913382028,0.0044227200412058475,-0.005227420973055644,-0.6487718273503146
1.92,-0.020016920832635166,-0.13021454019363002,-9.870102675985992,-0.008729930695695397,-0.019884482351628898,-0.011373134124288777,-1.7295119179255354,0.0022084742518237756,0.013524062095901984,0.7609239252090854,0.004428995836950178,-0.005227580225189227,-0.6488049196987149
1.94,-0.003033630170077059,-0.13690553010513087,-9.885479228847265,-0.008467042443997623,-0.021107278945312787,-0.010511366271922208,-1.7294278880110607,0.002196625145315341,0.013537449647297193,0.7608966164739459,0.004437713616898023,-0.005227601597307456,-0.6488368909008294
1.96,0.00011394720178904,-0.15385438931676057,-9.886691363816409,-0.008465006217636718,-0.02038319243899562,-0.010370292019137401,-1.729341054674366,0.002186895913097817,0.013546280851800832,0.7608684152681272,0.004444002998392857,-0.005226957617180182,-0.648869937031559
1.98,-0.021914230545987533,-0.13143438648838848,-9.883238554806162,-0.011429386039851271,-0.021512656438020264,-0.011638578688831305,-1.7292439551924306,0.0021849296704164675,0.01353842669274583,0.7608369458305201,0.004441399573431554,-0.005223877114027997,-0.6489069195558886
2.0,-0.031630592702757046,-0.12293556114441917,-9.887630292498388,-0.010375470585972551,-0.020236294954397053,-0.011214361002085865,-1.7291468557104952,0.0021829634277351177,0.013530572533690829,0.760805476392913,0.004438796148470253,-0.005220796610875812,-0.6489439020802181
2.02,-0.012913100249864286,-0.12657142010173345,-9.882112381931831,-0.007988382804837265,-0.021258760799160108,-0.009899301410589022,-1.7290409242852223,0.00218201169751662,0.013530892898908865,0.7607710696412368,0.004438950124799107,-0.005220773483061977,-0.6489841728460338
2.04,-0.007558231335372732,-0.15336895644051862,-9.883180956607612,-0.009789616860698305,-0.019833992237756674,-0.011186534177349128,-1.7289345757265902,0.0021811078827993005,0.013531599347533242,0.7607365241599924,0.0044392343334016945,-0.005220894755319103,-0.6490245989157463
2.06,-0.01912924916141434,-0.1306065296301165,-9.894319041355237,-0.010073607146372761,-0.021591348507306842,-0.011064457783545109,-1.7288267061786295,0.002180432790793673,0.013527041751394022,0.7607015141905241,0.004437438479129412,-0.005219397967043604,-0.6490656310973213
2.08,-0.0034282697069070965,-0.12198230794556948,-9.880442243673931,-0.010147367322668714,-0.019949054224067852,-0.009750611919925217,-1.7287169877533115,0.0021800357285116966,0.01351608531143172,0.7606659396005526,0.004433114151396848,-0.0052159343040340325,-0.649107400053624
2.1,-0.026768695619631355,-0.12689051521967534,-9.878932971404486,-0.010396589440118618,-0.020737183488794227,-0.01231640954281997,-1.7286072693279937,0.0021796386662297205,0.013505128871469417,0.7606303650105811,0.004428789823664286,-0.005212470641024461,-0.6491491690099266
2.12,-0.022323779128377956,-0.13014667665132082,-9.875081794925421,-0.0071776211204787645,-0.020196632587870206,-0.010654723179449729,-1.728492712680018,0.002180889330343137,0.013513395161579336,0.7605931878588578,0.004431228502005953,-0.005215883827201913,-0.6491927294380796
2.14,-0.00794439997633894,-0.14839944946605443,-9.86920997026131,-0.009509000494546734,-0.020663621600920827,-0.010315584686532417,-1.7283758802675546,0.002182915038823391,0.013530703285757924,0.7605552569069514,0.00443684830906861,-0.005222531690713476,-0.6492371325244372
2.16,-0.01628733069687626,-0.1567614157582998,-9.878863720959075,-0.010727968775350316,-0.02145205058714889,-0.012009803206477784,-1.7282578016941097,0.0021833248598089896,0.013536832151617325,0.7605169206882673,0.004438738060885095,-0.005224938731585091,-0.6492820240669356
2.18,-0.020109522233750076,-0.12854040297170835,-9.870652687942693,-0.01053285366978776,-0.021460157129018137,-0.011450398839154696,-1.7281380913117117,0.0021816187265002005,0.013528322127252752,0.7604780537853729,0.00443574342165174,-0.005221792547429341,-0.6493275552275215
2.2,-0.019681859407303548,-0.1287932832367555,-9.879730440653363,-0.009484353087015299,-0.02081787890762828,-0.011795369542806128,-1.7280183809293137,0.002179912593191412,0.01351981210288818,0.7604391868824786,0.004432748782418385,-0.0052186463632735896,-0.6493730863881074
2.22,-0.01191880979106507,-0.13545060746905302,-9.87864659764752,-0.007885434361149947,-0.01968946339009395,-0.011750154733174532,-1.7278894588971583,0.0021676007780682817,0.013527516324962885,0.7603972919695333,0.004439339584092912,-0.005216753770568022,-0.6494221239104367
2.24,-0.020939090211302,-0.13537332701947108,-9.893237698603905,-0.009235902752216538,-0.019310458406963597,-0.011426578366928616,-1.7277598296499412,0.0021544747224871326,0.013536465379352781,0.7603551645841894,0.004446666298265266,-0.0052149574210738235,-0.6494714306301305
2.26,-0.010356788980973938,-0.14373007501823643,-9.878098055387076,-0.009179841724786753,-0.021170420514511915,-0.011977627195757085,-1.7276310034566573,0.0021431322593179524,0.013543990705992279,0.7603133015766751,0.004452874681518832,-0.00521337518677446,-0.6495204281978815
2.28,-0.002068685795945515,-0.1299245300968843,-9.882306394832474,-0.009292162119111578,-0.02066327353324076,-0.011402877303355905,-1.7275062693873309,0.0021408784525144254,0.013544261139532438,0.760272785759936,0.004453384383080465,-0.005212884019815067,-0.6495678504192958
2.3,-0.00197929851312921,-0.13183183064743217,-9.872650770824167,-0.008576766116974898,-0.019010683731618044,-0.0108966595512414,-1.7273815353180044,0.002138624645710898,0.013544531573072597,0.7602322699431967,0.004453894084642098,-0.0052123928528556756,-0.6496152726407101
2.32,-0.02441832591750779,-0.1363374933792586,-9.8846303532486,-0.009133209803750526,-0.019538965568982936,-0.012306868277552736,-1.7272478317745654,0.002132501395829886,0.013550698523000108,0.7601888276615197,0.004457878795613086,-0.005212366967887089,-0.6496661062219483
2.34,-0.018744048669946212,-0.14540792162267444,-9.887296282710173,-0.008649320803576699,-0.019788357603829354,-0.01151394126645755,-1.7271131636326809,0.0021259620168949103,0.013557499598236307,0.7601450706608867,0.0044622372173091255,-0.0052123911204434836,-0.6497173066688847
2.36,0.00025301776758443256,-0.13836668112901207,-9.882795787992931,-0.010124752747712105,-0.020362139322626073,-0.01152373310461595,-1.7269822843596694,0.0021201211255992137,0.013561471632563802,0.7601025407687937,0.004465303457650653,-0.005211753522179867,-0.6497670627482945
2.38,-0.01545938527517796,-0.153980038805648,-9.878622811781783,-0.009402411851537805,-0.020665141726482282,-0.012175803492178606,-1.7268571720030892,0.002115343380054602,0.013561137673982341,0.7600618786194598,0.004466402909978442,-0.005210108694105711,-0.6498146204019736
2.4,-0.007543659259994161,-0.13357131713045525,-9.88178148702107,-0.009212693341769865,-0.019781935924490766,-0.01075998775723228,-1.7267320596465088,0.00211056563450999,0.01356080371540088,0.7600212164701259,0.004467502362306231,-0.005208463866031556,-0.6498621780556526
2.42,0.002721200764859948,-0.11625208084209723,-9.877587721405611,-0.009504250880906277,-0.020091277793679776,-0.012294107693167446,-1.7266046534120214,0.0021091360663965165,0.013566087397569329,0.7599797760100554,0.004469642523526331,-0.005209922226766322,-0.6499105603840516
2.44,-0.011614403810280807,-0.12700645774752953,-9.87031836706586,-0.008701263679320899,-0.02007561804199627,-0.010754047663017642,-1.7264769376302829,0.002108158317936388,0.013572129152016934,0.7599382305208776,0.004471923123161248,-0.005211799347175791,-0.6499590539981437
2.46,-0.02239421399693652,-0.1376550362980069,-9.87567229442378,-0.008733167796178987,-0.020435420011035165,-0.011239305744260396,-1.7263492624176935,0.002110617107384013,0.013577813610001275,0.7598967168992092,0.004472950877976669,-0.005214866176342468,-0.6500075330615275
2.48,-0.010548092103261741,-0.13620444574802043,-9.879606281253073,-0.009717302396893501,-0.02157181914118554,-0.011458554814348546,-1.7262216520788383,0.0021185712313287015,0.013582926718670413,0.7598552542365666,0.004471975220770791,-0.005219835457264496,-0.6500559888570145
2.5,-0.010308549803830995,-0.12732971443515434,-9.877164217735066,-0.008167635937929503,-0.020746281308831584,-0.011265359400175897,-1.726094041739983,0.0021265253552733903,0.013588039827339552,0.7598137915739241,0.004470999563564913,-0.005224804738186525,-0.6501044446525016
2.52,-0.006833266612050232,-0.13313129799740547,-9.872825859836414,-0.008336608576999778,-0.020547721783023037,-0.011119915948559841,-1.7259780070855124,0.002126319344373527,0.013595312656681836,0.7597760599318947,0.004473526224223339,-0.005227350385196317,-0.6501485106047818
2.54,-0.003271442586174053,-0.1357828719190562,-9.891895419902793,-0.009591064208911525,-0.02005891445972254,-0.01145649363803453,-1.7258638279520695,0.0021248053069855563,0.013602931677833595,0.7597389263527505,0.004476614287925164,-0.005229507536499228,-0.6501918728883969
2.56,-0.02484748835429433,-0.129078707107588,-9.874439876744503,-0.009618442997382497,-0.02095537267314457,-0.012103863450927062,-1.7257496441263078,0.0021260566788951774,0.013609832184281506,0.7597017949470944,0.004478529996928434,-0.005232481715699583,-0.6502352282299626
2.58,-0.019406923053739162,-0.14150074779879918,-9.885674843465418,-0.009085236831680447,-0.01945638929709679,-0.010680770716142441,-1.725635452110727,0.002132134705467648,0.013615478618737733,0.7596646673349734,0.00447839951650245,-0.005236881908587789,-0.6502785714551033
2.6,-0.014761707943553241,-0.12719590894359456,-9.88483722588343,-0.009249696623099978,-0.020206643485459058,-0.010741223807594477,-1.7255212600951462,0.0021382127320401195,0.013621125053193961,0.7596275397228525,0.004478269036076466,-0.005241282101475995,-0.6503219146802439
2.62,-0.010951866921979766,-0.12766960071263303,-9.877758324475058,-0.009557339849928063,-0.020462452166862755,-0.011213692688398573,-1.7254103591830106,0.002143478391462497,0.013617816752047424,0.7595914948163149,0.004475009646674903,-0.005242454189118509,-0.6503640285966249
2.64,-0.02047715752319152,-0.13698923626354317,-9.878230068539057,-0.009402697561917606,-0.021223663202513236,-0.01157676699694004,-1.7253000308718736,0.0021486027115896825,0.013612950465673922,0.7595556382837707,0.004471205875599026,-0.005243064636472913,-0.6504059286323318
2.66,-0.022791512525058122,-0.14482368666979922,-9.872383436319625,-0.008929914387431605,-0.019847767250483792,-0.011341362698205713,-1.7251841324277433,0.0021488257026337654,0.013612067331901486,0.7595179475939694,0.004470494211818194,-0.00524312167850924,-0.6504499437704659
2.68,-0.00929648356846678,-0.13774404706249774,-9.884845841098839,-0.00944009310447834,-0.02016188199041595,-0.011945337699857396,-1.7250577379701013,0.002139812932818341,0.013618689804111964,0.759476800731869,0.00447560912345084,-0.00524213591785073,-0.6504979444765715
2.7,-0.015953087013117775,-0.14394733243452046,-9.876454657973174,-0.009249739580879171,-0.01942549182105817,-0.011923676695047555,-1.7249313435124596,0.0021308001630029167,0.013625312276322443,0.7594356538697685,0.004480724035083485,-0.005241150157192218,-0.650545945182677
2.72,-0.015088309867300895,-0.1382126330720532,-9.88799868099087,-0.009611679764537643,-0.020601403074562905,-0.011644635326422985,-1.7248177958323412,0.0021284628061413635,0.013625647778604635,0.759398713019793,0.004481314219718941,-0.005240626062331432,-0.6505890656278276
2.74,-0.006150873613935507,-0.12694930326435128,-9.882498111418498,-0.008963516437997605,-0.019641713351720432,-0.01116850649952392,-1.7247066570183562,0.002127377138753051,0.01362480442736388,0.7593625608283076,0.004481055984460257,-0.005240188533234166,-0.650631270987828
2.76,-0.025078733656618706,-0.13165687982014554,-9.878305054702164,-0.010309156338685564,-0.02104282083986474,-0.01067043706948206,-1.7246023073672154,0.002126598365242453,0.013624816255708673,0.7593286107119298,0.004481040361574314,-0.005240130517546602,-0.650670891044903
2.78,-0.023042500243881884,-0.13098424454949525,-9.887001036458033,-0.009539130195200717,-0.01977502693324017,-0.011414375602256738,-1.724511078121688,0.002126412679900223,0.013626480762490055,0.7592989162187075,0.004481493599549476,-0.0052408059309997845,-0.6507055148713977
2.8,-0.01704897341051554,-0.14744176856095723,-9.890524475773566,-0.008771363815919926,-0.020377507695423673,-0.011347567969995215,-1.7244198488761606,0.0021262269945579934,0.013628145269271438,0.759269221725485,0.004481946837524637,-0.005241481344452966,-0.6507401386978925
2.82,-0.0014181851710861502,-0.13929516760011515,-9.872504932758135,-0.009658538287159247,-0.020384575819405608,-0.0106424735881424,-1.7243423143063779,0.0021223236166785595,0.013627563819539642,0.7592439823568218,0.004482793111685858,-0.005239984115457706,-0.6507695811897107
2.84,0.003657744858235723,-0.12641647269425868,-9.881277946780642,-0.01010537539661718,-0.021072366300991196,-0.01127719390821204,-1.7242676665788848,0.002117636547951896,0.013626508921413434,0.7592196821299259,0.004483722238008349,-0.005238028892697737,-0.6507979314544227
2.86,-0.015956828940100004,-0.12796834450335368,-9.884657462216222,-0.010338720299478734,-0.021296742446082147,-0.011239675763399062,-1.7241904560469479,0.002114846982904815,0.01362557107805895,0.7591945541449935,0.004484071688599103,-0.00523683782664139,-0.6508272512834535
2.88,-0.016274582540249303,-0.1405765292539117,-9.880726002912064,-0.008664934789431067,-0.01987573000038192,-0.010442804295149695,-1.724107898429196,0.0021160164070163677,0.01362487746009238,0.7591676991093433,0.004483211692292776,-0.005237241112225937,-0.6508585940306315
2.9,-0.008771877684687715,-0.12535205768042262,-9.886597298951624,-0.009216160930727137,-0.02071557530356761,-0.012321271003770336,-1.7240253408114439,0.002117185831127921,0.013624183842125812,0.7591408440736931,0.004482351695986448,-0.005237644397810483,-0.6508899367778095
2.92,-0.016446256796557503,-0.147574780455038,-9.888030868774473,-0.008871027019695098,-0.020615961027596323,-0.010813156140662881,-1.7239523327136779,0.002121059091050767,0.013622254732577712,0.7591170843629612,0.004480167574329578,-0.005238650110717662,-0.6509176328141262
2.94,-0.027611610262249345,-0.12640045789828966,-9.876893135871848,-0.009748341613444409,-0.020930934551188097,-0.011249209909864097,-1.7238815102971372,0.0021255512012591468,0.013620042845386527,0.7590940331060125,0.004477680388652383,-0.005239793706376104,-0.6509444941961904
2.96,-0.020061254593121525,-0.1260547876245302,-9.878173594405492,-0.009886816814808809,-0.019528742137611826,-0.011254620351188037,-1.7238183176681259,0.0021278285491433215,0.013620815318748862,0.7590734703435784,0.0044770667940450554,-0.005241051114642494,-0.6509684720323813
2.98,-0.025252890556794763,-0.12859280707713774,-9.888842515657828,-0.008241135407918486,-0.020594280250318422,-0.01066662518232049,-1.7237720480674472,0.002125193507865925,0.01362820716624318,0.7590584271140298,0.004480608863620851,-0.005242560961653948,-0.6509860541035098
3.0,-0.018195895429828916,-0.1438044365115007,-9.88540901677533,-0.009044290104008909,-0.019979465977371956,-0.010631651988698332,-1.7237257784667688,0.0021225584665885283,0.013635599013737497,0.7590433838844812,0.004484150933196646,-0.005244070808665401,-0.6510036361746384
3.02,-0.011869089667282989,-0.1293000194426765,-9.887065454797481,-0.010327934117138242,-0.01996600446902063,-0.011547396164589194,-1.7236745077558244,0.0021238918686377166,0.013631798287775682,0.7590266807116849,0.004482139938827978,-0.005243454287257682,-0.6510230787889056
3.04,-0.016892970665107053,-0.1418249544923653,-9.881690231863848,-0.01037970929873174,-0.020224717521887578,-0.010703586999274895,-1.723621976592274,0.0021262254555393426,0.013625176646530632,0.7590095591758289,0.004478729380452773,-0.0052423018475292165,-0.651042990324337
3.06,-0.026723042267178178,-0.12794647987829436,-9.881153399791193,-0.009982989759210054,-0.020848656790929104,-0.011499563368772147,-1.7235655886605832,0.0021273727215141004,0.01362208719297865,0.7589911848380219,0.004477035437108216,-0.005241857751066688,-0.6510643706536045
3.08,-0.015525574560212616,-0.14193560916008335,-9.891777173032855,-0.00901959144648644,-0.021094407476115934,-0.01145138753006364,-1.723500165074702,0.0021257406693488104,0.013627272965048214,0.7589698754300243,0.004479363187376325,-0.0052430731644752355,-0.6510891920798466
3.1,-0.015217132459196247,-0.13500790030246104,-9.87564056508435,-0.008693167009389217,-0.019919542256979964,-0.011912558917391262,-1.7234347414888205,0.0021241086171835204,0.01363245873711778,0.7589485660220266,0.004481690937644433,-0.005244288577883783,-0.6511140135060888
3.12,0.0061653083338950926,-0.14891934218247513,-9.88096735945055,-0.008353326227401888,-0.01938675766700039,-0.01081157156874952,-1.7233782392957113,0.00211854258221312,0.013630875555015971,0.7589301869227199,0.004482754451403976,-0.005241787812291033,-0.6511354940978373
3.14,-0.014101664455280662,-0.12184536859683671,-9.886320297432476,-0.01041982476508717,-0.020412850170331412,-0.010905823011397486,-1.7233241466208251,0.002111914044615544,0.013627464192175556,0.7589125992505333,0.004483476516133802,-0.005238283369217333,-0.6511560723863472
3.16,-0.0008421359872318301,-0.13017721012589983,-9.879158077741412,-0.009537920261279056,-0.020021593231204476,-0.011063173721503259,-1.7232718117533108,0.002106736114280427,0.013626510834298285,0.7588955692525629,0.004484663545355689,-0.005236125678618456,-0.6511759628913212
3.18,-0.007643764689831115,-0.13927242712198765,-9.87228933932244,-0.00833948889605177,-0.020666781180184134,-0.011478502184587739,-1.7232240856389882,0.002105361496503421,0.01363200206096582,0.7588800014073088,0.004487069653881463,-0.005237499006188808,-0.651194050113059
3.2,-0.014488958971973378,-0.142045778976151,-9.87730799888497,-0.009811239985202379,-0.020272071316319317,-0.010587638111330977,-1.7231763595246656,0.0021039868787264145,0.013637493287633353,0.7588644335620549,0.004489475762407235,-0.0052388723337591595,-0.6512121373347969
3.22,-0.008880546903598392,-0.143993229730482,-9.882175486468984,-0.00933577636147682,-0.020174976043188585,-0.011538068863055497,-1.7231257624917398,0.002105729647474585,0.013636632686780652,0.7588479738936074,0.004488449282525317,-0.005239366896539882,-0.6512313411511045
3.24,-0.03179542065802444,-0.12634741369903887,-9.883098948357176,-0.008400161852521714,-0.020169664322614526,-0.010619696746497398,-1.7230742996618071,0.0021084125417699154,0.013633856534142922,0.7588312452736644,0.004486387620118262,-0.005239596445912096,-0.6512508817043142
3.26,-0.010388864475048908,-0.13794204544569416,-9.886434012324598,-0.009529218405247447,-0.020656489640667457,-0.010716937348647702,-1.7230214515363125,0.002111518132402929,0.013631993092758409,0.7588140525249726,0.004484530867555486,-0.005240286547209828,-0.651270934135387
3.28,0.007043789349263302,-0.15214745043627553,-9.888764236428914,-0.008991175997890212,-0.02080907224072394,-0.011219361834643692,-1.7229648013049117,0.0021157838626379064,0.013632634694298618,0.7587955859205742,0.004483236514057923,-0.0052422406872037145,-0.6512923914752021
3.3,-0.019648557923982343,-0.14482572445502648,-9.88187201093058,-0.009339312936750246,-0.020897215653970118,-0.011173582579504808,-1.7229081510735111,0.002120049592872884,0.013633276295838825,0.7587771193161756,0.0044819421605603585,-0.005244194827197601,-0.6513138488150174
3.32,-0.019606481877786353,-0.13495811690416032,-9.885741709232617,-0.0075883647802024575,-0.0193625075094159,-0.010549038763507572,-1.7228539826322387,0.0021180029111170823,0.013639255062615875,0.758759468689379,0.0044847349323719815,-0.005245487059930047,-0.6513343958971417
3.34,-0.02782847808843444,-0.1222386715580286,-9.890844342814436,-0.009361302742829853,-0.01960499894052667,-0.011226218770214185,-1.7228006156263018,0.0021139177854309337,0.013646957340484754,0.758742081563221,0.004488847544490488,-0.005246565545391005,-0.6513546490331061
3.36,-0.002220922596563826,-0.13837088239140768,-9.878128498730241,-0.00994413130782444,-0.020895551610011137,-0.011845494982712545,-1.7227445371634307,0.002113466536051505,0.01365159397250435,0.75872381263464,0.004490606387381413,-0.005248030122802866,-0.6513759176973182
3.38,0.0015586874628977247,-0.14114103833454078,-9.89243567560278,-0.008853464889781256,-0.02125788769206445,-0.011288416935457733,-1.7226807514949216,0.002123344431716826,0.013647516631355805,0.7587030372186725,0.004485674737338225,-0.005250592150822532,-0.6514000729591143
3.4,0.0005724892284257417,-0.1308712927635307,-9.879397443961075,-0.00949552907067258,-0.020852457531164843,-0.012052523306888415,-1.7226169658264125,0.0021332223273821467,0.013643439290207261,0.758682261802705,0.004480743087295036,-0.005253154178842198,-0.6514242282209104
3.42,-0.0010790836799951721,-0.13256088926260215,-9.885979922169232,-0.008797501918833807,-0.019904000996296623,-0.01104715619369807,-1.7225438221733107,0.002133135564436992,0.013641942092343986,0.7586584551675131,0.0044800114948952505,-0.005252797687378598,-0.6514519907708008
3.44,-0.028447512696314948,-0.1277608680423227,-9.893003813204723,-0.009674509717179269,-0.019550821385989122,-0.0124345346397416,-1.7224673631778882,0.0021295185269895344,0.013641358986413846,0.7586335746334192,0.004480767896915177,-0.005251407224223743,-0.6514810313089977
3.46,-0.013366521741336124,-0.1531023458985867,-9.891327226633459,-0.007847117834407844,-0.018939273405851387,-0.011312740922265896,-1.7223806314008359,0.0021309804194879927,0.013642435756177091,0.7586053436208331,0.004480472237800564,-0.005252506844547361,-0.6515139408629234
3.48,0.004440177787149448,-0.14101289290131597,-9.894793967623505,-0.00881834897740551,-0.020571135246294465,-0.012108041332871843,-1.7222831603750803,0.00213775186628254,0.013645247773366988,0.75857360999103,0.0044790767454974435,-0.00525620961820673,-0.6515508951170721
3.5,-0.022953397279500676,-0.13728408227043767,-9.896225288350095,-0.009947914614596959,-0.020935020446243253,-0.011331086437548361,-1.7221856893493248,0.002144523313077087,0.013648059790556884,0.7585418763612268,0.004477681253194322,-0.005259912391866098,-0.6515878493712208
3.52,-0.0037046447377250963,-0.13417482808550113,-9.887321310592691,-0.008545362913506972,-0.01996731218815634,-0.011658499024411894,-1.7220837827405624,0.0021477539212437363,0.013648965964520641,0.7585086571929448,0.004476704251978786,-0.005261660840199324,-0.6516264684214977
3.54,-0.03411027278095829,-0.13177672124237094,-9.881277036419608,-0.010474852494684453,-0.020361727090960343,-0.010811446046239003,-1.7219802016755386,0.002149647843927948,0.01364915267249346,0.7584748772259574,0.004475885233382647,-0.005262671520290069,-0.6516657159411995
3.56,-9.13045933191397e-05,-0.13625006752880622,-9.87264954902214,-0.008996922192064218,-0.019576676546058432,-0.011783616126773795,-1.7218794433980023,0.002150522773684099,0.013649295291938505,0.7584420281712967,0.004475389044329537,-0.005263275189777154,-0.6517039071546108
3.58,0.0029634970979929257,-0.13393367473875617,-9.878258751168117,-0.009531330584359326,-0.02092143802375707,-0.010816807699277195,-1.7217887753589973,0.0021477552465601654,0.01364928031405693,0.7584125067236449,0.004476046830596288,-0.005262423973236336,-0.6517383225320873
3.6,-0.0071030184867998895,-0.14798215732557823,-9.888504953279808,-0.009276308106668924,-0.020753721394766483,-0.012588827928355481,-1.7216981073199922,0.002144987719436231,0.013649265336175354,0.7583829852759931,0.00447670461686304,-0.005261572756695519,-0.6517727379095637
3.62,0.008052707708218606,-0.13952477917024686,-9.872012717715771,-0.008621713798623039,-0.021579065151745687,-0.012110684843948042,-1.7215864856576482,0.0021542342470491594,0.013642473561767591,0.7583466280757779,0.0044708219215451065,-0.005263114441159115,-0.6518150432924344
3.64,-0.011116513016861031,-0.13629910640963258,-9.877635005184331,-0.009023262155467374,-0.020100149035429983,-0.011618639720894792,-1.7214738363720248,0.0021640699769269168,0.013635349434632212,0.7583099356314689,0.0044646184630338,-0.005264773480064836,-0.6518577356228553
3.66,-0.006269535643677628,-0.13586906927933592,-9.879327791202302,-0.009281096274350196,-0.020253034904275186,-0.010691850074482402,-1.7213615387838275,0.0021727542910436625,0.013628627005989036,0.7582733600107607,0.004458943525934059,-0.005266125883392096,-0.6519003013969357
3.68,-0.028314445854231277,-0.11313972317165069,-9.889091798379111,-0.010529296179819642,-0.019953814314684584,-0.011404956823644105,-1.721250635328069,0.0021768743805093485,0.013623496914555838,0.7582372474800824,0.004455363653481659,-0.005266262779937625,-0.6519423655002998
3.7,-0.009428584079647428,-0.13995380526002588,-9.88520085612493,-0.010070602811759003,-0.021425696288910785,-0.01123641555033164,-1.7211397318723105,0.0021809944699750345,0.01361836682312264,0.7582011349494039,0.004451783781029258,-0.005266399676483152,-0.6519844296036639
3.72,-0.026335679669489465,-0.13598825381785412,-9.88291638507642,-0.009158296871328122,-0.021856244127522597,-0.010402235886769851,-1.7210371066322077,0.0021927400581598926,0.01361727197073357,0.7581676781317283,0.004447268768323414,-0.005270723378190915,-0.6520232813857126
3.74,-0.003735717078689598,-0.1497372814287362,-9.878942579810529,-0.009643861180699808,-0.020922757407848984,-0.01075408826966281,-1.7209382407155729,0.0022079485564072744,0.01361800961093354,0.7581354273329138,0.004442329087446638,-0.005276948402062654,-0.6520606743805768
3.76,-0.006673165968695333,-0.14335823949760343,-9.882050687668446,-0.011073522034338621,-0.019904414489701684,-0.01127786739967521,-1.720832277930057,0.0022228574619514866,0.01361459462795208,0.7581008933150497,0.004435893946358015,-0.005281721119077014,-0.6521007882901396
3.78,-0.00588530009733325,-0.12133529144853389,-9.87517049749425,-0.009918988877660467,-0.021112622511855077,-0.012724539630268348,-1.7207168072663912,0.002237364994585462,0.0136056162569648,0.7580633004033442,0.004427455294466156,-0.00528454813907094,-0.652144547486919
3.8,0.0009528619218648667,-0.15863654980693204,-9.884152995568147,-0.009107871365403376,-0.019697816219620915,-0.010818537378516327,-1.7206013366027253,0.002251872527219438,0.013596637885977519,0.7580257074916388,0.004419016642574296,-0.005287375159064864,-0.6521883066836984
3.82,-0.014404266357071954,-0.13550458293972956,-9.879412974428849,-0.009568813229500114,-0.02050206657732605,-0.01198460973277703,-1.7204907071156121,0.0022567359469821257,0.013592941358746356,0.757989661325726,0.004415737201340965,-0.005288257225026886,-0.6522302429783444
3.84,-0.018496239775133164,-0.14339137683275888,-9.875055297273718,-0.010199222492665933,-0.020571145954409464,-0.010871540570956776,-1.720380476671195,0.0022608044333734343,0.013589680196998799,0.7579537426531207,0.004412883017337321,-0.005288978974650185,-0.6522720290169991
3.86,-0.028131949895358083,-0.12805992590419435,-9.882020600630325,-0.009634957437848007,-0.02104939613472325,-0.01202041360901175,-1.7202687078030485,0.002264188852031801,0.013586543216010315,0.757917314552237,0.0044102949094196155,-0.005289485254571294,-0.652314394437508
3.88,-0.0026691133591519034,-0.1312012792513467,-9.888791882727832,-0.009662463021149375,-0.020168211211151477,-0.010383262914866832,-1.720149472829927,0.0022642534301237707,0.013584008895111879,0.7578784141513416,0.004408998092029595,-0.005288945841173284,-0.6523595716488529
3.9,0.0004911108933364113,-0.14714832920016663,-9.88807114045628,-0.008621372890843687,-0.020798348065979955,-0.011739722772905923,-1.7200302378568053,0.0022643180082157406,0.013581474574213442,0.7578395137504461,0.004407701274639575,-0.005288406427775274,-0.652404748860198
3.92,-0.018342454668237994,-0.14523194561971847,-9.869220030935187,-0.009081759816668995,-0.022315608966480972,-0.011796623310883816,-1.7199247407213025,0.002270540908408279,0.013577451651066707,0.7578051162948223,0.0044038678121277475,-0.005289684097385821,-0.6524447126976494
3.94,-0.005779550593209884,-0.13720551040173537,-9.871479599180237,-0.011234064892777234,-0.02041722332305858,-0.012462137266618593,-1.7198205890130238,0.0022773669292984137,0.013573282940348005,0.7577711598391085,0.004399785921042287,-0.005291139724620833,-0.6524841659587379
3.96,-0.02809114203102396,-0.13935662809603228,-9.880530110090792,-0.00969916566715626,-0.020606873512357293,-0.011184080624339466,-1.7197190140012617,0.0022817211504335896,0.013572172601652327,0.7577380262172096,0.004397675859176157,-0.005292650808712362,-0.6525226363969011
3.98,-0.014441086741710789,-0.14216701185855338,-9.886573383310445,-0.009250238531188617,-0.019631135422833706,-0.01219891673332979,-1.7196212096178178,0.0022824582447195647,0.013575537754766671,0.7577060966953914,0.004398451288497963,-0.0052942430460139285,-0.65255966861371
4.0,0.002152249488237534,-0.13622416842152543,-9.878082825223887,-0.008117021285035131,-0.020615441288848013,-0.011375844770151636,-1.719523405234374,0.00228319533900554,0.013578902907881015,0.7576741671735729,0.004399226717819769,-0.005295835283315494,-0.6525967008305188
4.02,-0.018039786678265245,-0.14843762479459469,-9.885175841552538,-0.009340976754574314,-0.020664867882451296,-0.011542052964704133,-1.7194341936247122,0.002272847487504562,0.013580405131471839,0.7576450398565,0.004402936641500888,-0.005292601993312431,-0.6526305274791984
4.04,-0.007005401271804846,-0.140933405926165,-9.875165868702354,-0.009770224816611089,-0.018619002275122185,-0.009998108683114574,-1.7193498670450207,0.0022561977952060288,0.013580848271373852,0.7576175056052414,0.004408314838228094,-0.005286625369654653,-0.6526625317481926
4.06,-0.021880452011834115,-0.12820927694433945,-9.886171389824373,-0.009785054679878285,-0.01981747593830247,-0.010902863859574563,-1.719262420997215,0.002245209895283115,0.013580160515285971,0.7575889609629536,0.004411408967203431,-0.0052824313842815196,-0.6526956997047126
4.08,-0.007396004575323526,-0.13117813704404424,-9.880600787918576,-0.009345389845887907,-0.020187790556136505,-0.011615912344000058,-1.7191699718602678,0.0022433025343883556,0.013577658996966674,0.7575587958276192,0.004410839845217269,-0.005281096443437553,-0.6527307340154356
4.1,-0.008789723071287264,-0.1391413706505547,-9.886394143696457,-0.00921178451816014,-0.020174017377649067,-0.011148637684123164,-1.7190775227233206,0.0022413951734935964,0.013575157478647374,0.7575286306922849,0.004410270723231108,-0.0052797615025935865,-0.6527657683261585
4.12,-0.019690851375984787,-0.14987132829936906,-9.88021992630695,-0.00945210940312201,-0.020516748796006543,-0.0106740912130505,-1.7189962107413204,0.002239593032356064,0.013573114501757973,0.7575020709783722,0.004409870440807601,-0.005278591269221893,-0.6527965579945132
4.14,-0.019031352846635246,-0.14474641268524657,-9.879099194498584,-0.009158218388642166,-0.019746368887148123,-0.011615792446493791,-1.7189164956027119,0.0022378059776095175,0.013571137270461194,0.7574760282091728,0.004409494366572017,-0.005277444651579703,-0.6528267390667635
4.16,-0.02206600021624394,-0.1416267477439351,-9.881459633129065,-0.010231742368003968,-0.02076575186985888,-0.011909452317122139,-1.7188357799828784,0.002237260387109221,0.013567678297075059,0.7574496851296457,0.004408149444559918,-0.005276286770994974,-0.6528573172302876
4.18,-0.005818371294077508,-0.14173709876790552,-9.881710376242598,-0.00922161358705384,-0.02038337699695675,-0.011421280380017414,-1.7187533494657248,0.002238842756290616,0.01356167951037224,0.7574228272964548,0.004405143847250608,-0.005275109584910558,-0.6528885760370305
4.2,-0.01384136365202229,-0.1326993507300468,-9.88806583206355,-0.010075796954408798,-0.0202775807789423,-0.01221210217239141,-1.7186709189485712,0.0022404251254720107,0.013555680723669418,0.7573959694632639,0.0044021382499412984,-0.005273932398826143,-0.6529198348437735
4.22,-0.011486442225500307,-0.13970189051606408,-9.884893159169904,-0.00916177104121266,-0.021072571917663534,-0.010653091643787825,-1.7185891971255753,0.0022404792539109262,0.013560537135024395,0.7573692635932072,0.004403743895053915,-0.005275718341254263,-0.6529507556419907
4.24,0.009172205866511842,-0.13769963165440452,-9.870417871367634,-0.010001606935121893,-0.021276103946891382,-0.0115655662090796,-1.718507587901918,0.002240290571125141,0.013567118251042396,0.7573425818674845,0.00440608218744437,-0.005277975073946687,-0.6529816227364543
4.26,-0.012887210614858301,-0.12733500563750694,-9.870931283580347,-0.00920087473284424,-0.020172691657037098,-0.011812376240923579,-1.718424204530357,0.0022412290102083654,0.01357072687125113,0.7573153339215393,0.00440692213961332,-0.00527969204887044,-0.6530131700264833
4.28,-0.00802909796661445,-0.1319701959935221,-9.879912951026219,-0.009246948148854925,-0.02111631513108044,-0.010094216839278787,-1.7183376180366654,0.002244202403082587,0.01356896882102066,0.7572870636975071,0.004405056924579158,-0.005280434522147317,-0.6530459453705341
4.3,-0.016478125418300345,-0.1234347073094763,-9.887145210481112,-0.010020745892094687,-0.02060427894181121,-0.01104465725503257,-1.7182510315429735,0.002247175795956809,0.013567210770790192,0.7572587934734749,0.0044031917095449956,-0.005281176995424195,-0.6530787207145848
4.32,-0.009735600619707817,-0.1469238580985798,-9.87236121838315,-0.010078057509002468,-0.02007313599695244,-0.01108352290293552,-1.7181638758141078,0.002239906733969399,0.013564618606544053,0.7572303438109685,0.0044043543059905516,-0.005277770512371408,-0.6531117636258579
4.34,-0.004680851012634367,-0.12986036765708234,-9.878418871951302,-0.009158934240844257,-0.019754391464516314,-0.011518301745788467,-1.7180766242483583,0.0022309132441918718,0.013561886010203444,0.757201863938059,0.004406026667168233,-0.005273665507754062,-0.6531448515849596
4.36,-0.00859012855294149,-0.1298825933107202,-9.881845810601325,-0.00926878205906306,-0.020630903124685605,-0.011482467670070927,-1.717987614024059,0.0022231769844209288,0.01355629301325951,0.7571728033821225,0.0044062011740509865,-0.005269106061946985,-0.6531785963450911
4.38,-0.006285813977787573,-0.1422263300677542,-9.882161587228673,-0.010336811515291118,-0.019593066245382425,-0.010544970171475133,-1.717895287696948,0.0022178113405720815,0.013545306483566354,0.757142647898112,0.004403551347103063,-0.00526368972796957,-0.6532135795603745
4.4,-0.017170484464343293,-0.13218787963487455,-9.876435755258822,-0.00955097456409818,-0.020125555934774355,-0.011293620777236077,-1.7178029613698371,0.002212445696723234,0.013534319953873195,0.7571124924141016,0.004400901520155138,-0.005258273393992155,-0.6532485627756578
4.42,-0.01665210615396852,-0.13685237457431143,-9.879037272909022,-0.009549608086640146,-0.02036387911005902,-0.011880627225444152,-1.7177034452659712,0.0022144460900820053,0.013534278866297513,0.7570799799764777,0.004399970595775156,-0.005259236108518964,-0.6532862193537294
4.44,-0.014411935960199478,-0.1307470722274362,-9.880520031797133,-0.010139246769383442,-0.02107345481789548,-0.010873038820523342,-1.717602562227459,0.002217846929074716,0.013536318747931313,0.7570470194301483,0.004399366472567717,-0.005261411620425778,-0.6533243841968477
4.46,-0.012101502379491216,-0.13723287128266834,-9.879083542596726,-0.010209105687127226,-0.02040476298757962,-0.012383693962224893,-1.7174978255840692,0.0022206183898461113,0.01353484512136348,0.7570128137847847,0.004397627970809114,-0.005262209470778568,-0.6533640249612725
4.48,-0.025993295149714695,-0.1280607932786369,-9.88339832635865,-0.010057459597089233,-0.020253211337235084,-0.011215623061846506,-1.7173853370497643,0.002222123796761379,0.013526303740531893,0.7569761035048785,0.004393607559237985,-0.005260236024534427,-0.6534066346810855
4.5,-0.006461120461278714,-0.11369273671592747,-9.88155630894167,-0.009054755204540726,-0.02114641694468933,-0.01046451226301368,-1.7172728485154594,0.0022236292036766467,0.013517762359700305,0.7569393932249724,0.004389587147666855,-0.005258262578290286,-0.6534492444008985
4.52,-0.00866613481171465,-0.1395458894552657,-9.887250218909388,-0.009437497754874357,-0.020023051897783917,-0.011923419293417885,-1.7171581342334084,0.0022246217548607893,0.013520722610351634,0.7569019010192469,0.004390081283611929,-0.005259857394575884,-0.6534926431102717
4.54,-0.010728325411442346,-0.1351218314275791,-9.87919750506827,-0.009244143985915408,-0.02147036488897716,-0.011328645236455506,-1.717042984912796,0.0022255140646677183,0.01352593093840578,0.7568642559804415,0.004391457820655508,-0.005262149653687079,-0.6535361960333844
4.56,-0.007541351194727231,-0.13606293132877445,-9.888506149390778,-0.010140938430178568,-0.020102822709739565,-0.011594243342079133,-1.7169299275129466,0.0022239075539136695,0.013528708178005399,0.7568272988636181,0.004392736555021549,-0.005262697448694956,-0.6535789740104213
4.58,-0.01894428675918699,-0.12891933062530245,-9.865736993388989,-0.009542900409386405,-0.020033841379330845,-0.01133908180293949,-1.7168214350603146,0.0022168481674247247,0.013526180345504171,0.7567918429162437,0.004393801866360953,-0.005259438509386681,-0.6536200609157906
4.6,-0.011118781761644075,-0.12381362319231176,-9.882321676827202,-0.00981581434014829,-0.020352331660531367,-0.010667821577861412,-1.7167129426076828,0.0022097887809357803,0.013523652513002943,0.7567563869688692,0.004394867177700356,-0.005256179570078407,-0.65366114782116
4.62,-0.0047883758998526794,-0.13637812439202548,-9.886398226755711,-0.009587376348866484,-0.021268369321586777,-0.01153176908962871,-1.7165977918287592,0.0022081010513941316,0.013523381663715818,0.7567187586062528,0.004395013699736818,-0.005255705568748755,-0.6537047316631868
4.64,-0.0049268961274430865,-0.14192391523665818,-9.879923588701088,-0.009314233129656055,-0.0202686457343544,-0.01087629636900409,-1.716481141162206,0.0022076233679589096,0.013523619233670146,0.7566806408745962,0.004394953250734444,-0.005255858916371342,-0.6537488779775588
4.66,-0.00579332185084213,-0.14650406029993643,-9.873636646882327,-0.009130968599354397,-0.019808621589236245,-0.011680110763825611,-1.7163618328299004,0.002204572216502017,0.013524141065089076,0.7566416412788527,0.004395834718098983,-0.0052551375431614915,-0.6537940297340568
4.68,-0.02580861110122549,-0.13117731856804093,-9.886760607951643,-0.010049299061408595,-0.01868382391662466,-0.011184711760354609,-1.716236464217628,0.0021956527813145558,0.013525311098433931,0.7566006307668556,0.004398864039038924,-0.005252421542473636,-0.6538414742020325
4.7,-0.0065892258663101345,-0.13664426853279266,-9.89096904782856,-0.0093801602902191,-0.020576686824022864,-0.011352800194774328,-1.7161110956053556,0.002186733346127094,0.013526481131778786,0.7565596202548585,0.004401893359978863,-0.005249705541785781,-0.6538889186700083
4.72,-0.024031399072901832,-0.12663492662388653,-9.887375417209807,-0.009713083987922541,-0.02017324333566995,-0.011445504263974726,-1.7159936928735142,0.002185504982151098,0.013527207071144139,0.7565212095065492,0.004402261177474043,-0.005249736409337933,-0.6539333117425424
4.74,-0.007551722844572679,-0.13516164930704375,-9.879661898901535,-0.009269650195211332,-0.019944394633042997,-0.011588100470053429,-1.7158782376212456,0.0021861569130409994,0.013527824439465659,0.7564834343423062,0.004401978316913441,-0.005250438824728739,-0.6539769588171491
4.76,-0.005767614690471837,-0.13873549457360115,-9.884988915798688,-0.010296392003683251,-0.02064162811424179,-0.011247147697604518,-1.7157680332279635,0.0021853051758363726,0.013528346765005854,0.7564473784339378,0.004402165073567526,-0.005250529971695576,-0.654018628563367
4.78,-0.015847909710904634,-0.1341180984821578,-9.883563642326422,-0.009848394989967346,-0.020685092245462094,-0.011417356710285959,-1.7156702994032555,0.0021808822903424453,0.01352864336794997,0.7564154056857414,0.004403467151294765,-0.005249169381943051,-0.654055602238079
4.8,-0.0220677877944936,-0.1512266948710525,-9.870537775255206,-0.009053221356037682,-0.0195960802685827,-0.011007489346845907,-1.7155725655785479,0.002176459404848518,0.013528939970894088,0.7563834329375448,0.004404769229022005,-0.005247808792190526,-0.6540925759127911
4.82,-0.006161502888220009,-0.1278619230132854,-9.884296190429533,-0.010091769499003245,-0.021075329245560007,-0.01221246162404711,-1.7154680142076533,0.0021760522462971436,0.013534193747803205,0.7563492450796426,0.004406614824761443,-0.005249603635695604,-0.6541321189822698
4.84,-0.005151725607178326,-0.13814583840989372,-9.87340368310001,-0.008509560326977547,-0.021145517909459753,-0.011578384911861464,-1.7153615561572282,0.0021767681757530566,0.013540833909471488,0.7563144377166842,0.004408612427489896,-0.005252280966805071,-0.6541723806405594
4.86,-0.02470452652558825,-0.14550462572501516,-9.878224377362233,-0.00962825912583924,-0.02011790520031263,-0.011392590672556756,-1.7152586704510453,0.0021798057094095397,0.013546223180065037,0.7562807904185269,0.004409386509848328,-0.005255419189809582,-0.6542112746190841
4.88,-0.013568722238027292,-0.12089053966516367,-9.88334878071827,-0.007985852888768531,-0.01998415407897009,-0.011852186939380687,-1.7151590908915069,0.0021849918500921202,0.013550454771261124,0.7562482167415242,0.004409028243952498,-0.005258983960786276,-0.6542489028321735
4.9,-0.010313144603849581,-0.1392313174481662,-9.88715522694138,-0.009582902990141005,-0.021763746995689733,-0.011199367777356561,-1.7150595113319687,0.0021901779907747007,0.013554686362457212,0.7562156430645214,0.004408669978056667,-0.005262548731762969,-0.6542865310452628
4.92,-0.02240507779916858,-0.12663368371260517,-9.883578679140877,-0.009454089278519592,-0.02027288671610329,-0.012736081741476321,-1.7149626965956155,0.0021861987168457675,0.01355376588723493,0.7561839583044884,0.004409369372601903,-0.005260956521558224,-0.6543231451576185
4.94,-0.017345916699439155,-0.12582143318941783,-9.876720176324243,-0.008284844642593043,-0.01969738515133113,-0.01181741727907218,-1.714866755200674,0.002179324308003361,0.013551217997651535,0.7561525543320314,0.004410402856743663,-0.005257735344536447,-0.6543594389398457
4.96,-0.020362339722462167,-0.13880330293017618,-9.893058401994239,-0.008894963478702904,-0.02022716838403593,-0.010938987428524944,-1.714774463217372,0.002175273653447187,0.013550107639284397,0.7561223479662391,0.004411065530011804,-0.005256044060871242,-0.6543943423863641
4.98,-0.005750748086143943,-0.1456822354365739,-9.88460718993868,-0.009079653545681708,-0.021525818162456113,-0.011474203819511794,-1.7146931839824937,0.0021797441794630867,0.01355333528692984,0.7560957555914705,0.0044106092155452095,-0.005258969502397365,-0.654425050247704
5.0,-0.025370144028274165,-0.13023925171770678,-9.874660312423691,-0.008311888668032001,-0.02000417226236579,-0.011693016666498095,-1.7146119047476152,0.0021842147054789867,0.013556562934575286,0.7560691632167018,0.004410152901078616,-0.005261894943923488,-0.6544557581090441
5.02,-0.03436008810403225,-0.13805784207782287,-9.886008429120116,-0.009122662384855504,-0.02072175194835477,-0.012185749300562541,-1.7145111637230201,0.002191883435795168,0.013550467423678025,0.7560362230199259,0.004405073943145104,-0.005263020783340232,-0.6544938334791542
5.04,-0.016775680566319146,-0.13740668622934463,-9.872133723004607,-0.009945660187524356,-0.020820290293757662,-0.011301160923608314,-1.7144102171750029,0.0021995859402864173,0.013544273456910144,0.7560032157878915,0.004399946168452228,-0.005264127618318553,-0.6545319866527778
5.06,-0.00940933451667123,-0.1316210738522571,-9.884951570837915,-0.009565069213229775,-0.019663604208413114,-0.010558687117725712,-1.7143101055567662,0.002204061269548234,0.013538043138199942,0.7559704731929808,0.004395863143314905,-0.005264000726220006,-0.6545698312478104
5.08,-0.00707414527027095,-0.1389254435497682,-9.882295193647394,-0.010372536346652968,-0.01981913968652594,-0.010452136739951427,-1.7142129327026727,0.002197177671307586,0.013531684868867896,0.7559386620609403,0.004395457400511537,-0.005259531393619261,-0.6546065897159384
5.1,-0.02638012200572944,-0.13893228286800008,-9.88039115106104,-0.00915072561626893,-0.01938664660523891,-0.010815769989655603,-1.714115759848579,0.002190294073066938,0.01352532659953585,0.7559068509288996,0.004395051657708169,-0.005255062061018515,-0.6546433481840664
5.12,0.005365593289887464,-0.13916774102818896,-9.88430191805953,-0.009051327007236305,-0.01980096272412564,-0.011119252944012947,-1.7140165147206232,0.002183445793459662,0.01352266522071873,0.7558743726518332,0.004396026917977981,-0.005251820986021308,-0.6546808966774997
5.14,-0.017157167443378488,-0.1426734092247546,-9.866331618035858,-0.010416635550820648,-0.01847528284556003,-0.011796286115282445,-1.713916492792683,0.0021766107531806175,0.013521389635809483,0.7558416442928375,0.004397519852665752,-0.0052490403282037315,-0.654718741315017
5.16,-0.010485298406721941,-0.12486474408587413,-9.877896386331587,-0.010011306602452228,-0.01952136283823803,-0.011015100783821362,-1.7138186905584842,0.0021714493465432487,0.013520086505758148,0.7558096387016942,0.00439846050695547,-0.0052468783253698135,-0.6547557362667638
5.18,-0.027172964987264504,-0.12212213061072609,-9.88197205283425,-0.008718888013068166,-0.019532501676890114,-0.012085446916487556,-1.713723419178947,0.0021681961867172283,0.013518751969233944,0.755778457197385,0.00439877146112306,-0.005245421701760174,-0.6547917624221612
5.2,-0.028642899104201522,-0.14555952489696522,-9.876346405261733,-0.009497345338954969,-0.020163769294088318,-0.011763504928861397,-1.71362814779941,0.002164943026891208,0.013517417432709738,0.755747275693076,0.004399082415290651,-0.005243965078150534,-0.6548277885775586
5.22,-0.00800934082243661,-0.1447503380285327,-9.886598948305062,-0.008888648123580494,-0.02107422251789249,-0.009981004806632197,-1.7135352138419078,0.002162279031924302,0.01351608559031888,0.7557168202930507,0.0043992077437845336,-0.005242726651101824,-0.6548628948732814
5.24,-0.02213080187576488,-0.12818019577148346,-9.870754999361342,-0.009846273358865792,-0.019774191779557318,-0.012577021871035014,-1.713442383889188,0.002159641252147493,0.013514753867804851,0.7556863972014047,0.004399324812769641,-0.005241497932820082,-0.65489796023938
5.26,-0.020827399547008726,-0.12435783835343855,-9.88659565050616,-0.009829369166313372,-0.020300191206846584,-0.009721879068257064,-1.7133520777648221,0.002156433094788213,0.01351398251614012,0.7556567983837978,0.004399847068952977,-0.005240231716566923,-0.6549320722789392
5.28,-0.019499771477817333,-0.13519425569614546,-9.889478047688803,-0.0097713049675992,-0.02218668169453499,-0.011031128963437473,-1.71327206563005,0.0021508985268830607,0.013515496760356889,0.7556305615493331,0.004402021970331314,-0.005238812556581692,-0.6549622959663208
5.3,-0.029769051343143164,-0.1310906791764266,-9.86996008130394,-0.007924038781445559,-0.018739447740843504,-0.010022976465248397,-1.7131920534952778,0.0021453639589779083,0.013517011004573658,0.7556043247148683,0.004404196871709652,-0.005237393396596462,-0.6549925196537024
5.32,-0.010216420328918441,-0.14575412959161316,-9.88207845620642,-0.009797175383987677,-0.01920645819559259,-0.011741759698567594,-1.7130976969087715,0.0021474821724778883,0.013511174724561205,0.7555734447210073,0.0044010511901637584,-0.005236489625453583,-0.6550281810530818
5.34,-0.016266426121169894,-0.13533100529762396,-9.876821634558429,-0.011203647226792507,-0.020926582792798475,-0.011429496417210522,-1.7129971985532992,0.0021528770267451617,0.013502191219236098,0.7555405766963167,0.004395627429839395,-0.005235806524940433,-0.6550661706816199
5.36,0.0016907439159659647,-0.11714486588911506,-9.86971517577178,-0.010707825280256045,-0.020989882874394548,-0.009805337727240595,-1.712902134719798,0.002155957887013507,0.013496307680070254,0.7555094685391287,0.0043921469124754255,-0.00523525237105467,-0.65510209800838
5.38,-0.0014987633509847987,-0.13531160560579827,-9.881285928762876,-0.01019009452787801,-0.021347234361411,-0.012791959976311773,-1.7128139191577958,0.002156122785355979,0.013494330539666075,0.7554805780655799,0.004391115157937917,-0.005234860708279991,-0.655135426541251
5.4,-0.01189260152781968,-0.1383313879477593,-9.87293575008631,-0.007524385202275912,-0.019911931997299456,-0.010557614574405587,-1.7127257035957937,0.0021562876836984514,0.013492353399261895,0.7554516875920311,0.00439008340340041,-0.0052344690455053125,-0.655168755074122
5.42,-0.022336858644595614,-0.14279019437111884,-9.879779905575537,-0.01048883465302762,-0.020997578109956894,-0.012348072152039986,-1.712635447718421,0.0021582264620042943,0.013483648421184356,0.7554221429450145,0.004385924172723629,-0.005232547444781588,-0.6552028635065293
5.44,0.0011953932193728722,-0.1488813153881763,-9.874207325688687,-0.011180499143195232,-0.01885536775869748,-0.010596997123637951,-1.712544213045187,0.002161016219718431,0.013471715912811311,0.755392284472845,0.00438026460501762,-0.005229891890398378,-0.655237346078371
5.46,-0.014323295827735689,-0.1350839058764196,-9.8776314953401,-0.009711965285756729,-0.021039050170773607,-0.012088550449435426,-1.7124503722993647,0.0021585965650420653,0.013462810800307213,0.7553615657769205,0.0043774488597577805,-0.005226266297794794,-0.6552728284276951
5.48,-0.01672928049484699,-0.1274732096667506,-9.880031337601473,-0.010022062103670792,-0.021397134186900032,-0.011127227408309114,-1.7123529334299916,0.002148984436336723,0.01345808551933316,0.7553296593967517,0.004378559491899812,-0.005221301403522588,-0.6553096911387639
5.5,-0.011171564011551683,-0.1493450293503292,-9.873852034898501,-0.01021691097754451,-0.019421638825927297,-0.012514423306713316,-1.7122554945606188,0.002139372307631381,0.013453360238359108,0.7552977530165829,0.004379670124041844,-0.005216336509250382,-0.6553465538498328
5.52,-0.007980359417776906,-0.13482918117635995,-9.87751925888882,-0.007588206314712122,-0.019701463140306935,-0.011003023744510707,-1.712167397259733,0.0021484582943201076,0.013462929339868734,0.7552688818332203,0.004380076009892214,-0.005223096290738659,-0.6553797728578037
5.54,0.005249041958013782,-0.1561767404556655,-9.872318682901827,-0.010534045837910273,-0.022530420953744284,-0.011950259331098587,-1.71208012719076,0.0021592000712306898,0.013473764264069316,0.7552402794282392,0.004380419487740812,-0.005230894337478245,-0.6554126692018144
5.56,-0.02081433815874189,-0.1330867960692877,-9.864794693145145,-0.010366823832203905,-0.018587657563625817,-0.01021792317640437,-1.7119994460504626,0.002161776867962352,0.013477989008650205,0.7552138329359835,0.004380959805616252,-0.005233428582625754,-0.655443115664714
5.58,-0.0329232562755217,-0.11092532592631427,-9.888660453233111,-0.008526338136331194,-0.01923750949372836,-0.011763691274570722,-1.7119278620395197,0.0021530805299368075,0.013473087283357409,0.7551903630455254,0.004381771894408407,-0.005228695260261478,-0.6554701796527884
5.6,-0.024749217008805145,-0.12326576609030657,-9.88023283394039,-0.008908943530862145,-0.020091202369469274,-0.010807372917842248,-1.7118562780285769,0.0021443841919112625,0.013468185558064612,0.7551668931550675,0.004382583983200562,-0.005223961937897203,-0.6554972436408627
5.62,-0.025286929428308125,-0.15065973493528653,-9.877396156701696,-0.00658114854560559,-0.019890164113771844,-0.011297206167154104,-1.7117779764695331,0.0021248118178324124,0.013491071256194549,0.7551411269635011,0.004397435285839128,-0.00522424556490065,-0.655526791126879
5.64,-0.012562050018459558,-0.15097878679826662,-9.886207518639502,-0.00752423540140992,-0.019166781020489847,-0.010010715693465204,-1.7116963226817938,0.0020998120229738506,0.013527823590896852,0.7551142148588198,0.004419292516058972,-0.005227032778239752,-0.6555575779420285
5.66,0.004006989321021245,-0.13275760640688788,-9.894075630291294,-0.010767627246707547,-0.021463732176902808,-0.00975640440134948,-1.7116127457422776,0.0020832578707899656,0.013543514276163257,0.7550867469015251,0.004430424749099841,-0.0052261098284044774,-0.6555891324583073
5.68,-0.039332493315294884,-0.11556801013202901,-9.86217968372637,-0.010552126147815486,-0.019547548644137724,-0.010928214470851436,-1.7115263527929392,0.002079070403863087,0.013528365059766746,0.755058465026973,0.004425852710766276,-0.005219754204941272,-0.6556218110948695
5.7,-0.04317712364775082,-0.11056768652301453,-9.872450184308626,-0.00795603110252515,-0.01966372123824441,-0.010745150598893013,-1.711439959843601,0.0020748829369362084,0.013513215843370233,0.755030183152421,0.00442128067243271,-0.005213398581478068,-0.6556544897314317
5.72,-0.012766637468515937,-0.1309339777124462,-9.882334181942158,-0.008675807898502742,-0.02112097867834034,-0.010190194816286885,-1.7113427651877986,0.002072392296427995,0.013523478922340144,0.7549982795021636,0.004425717746464804,-0.005216038369668273,-0.6556911510419006
5.74,-0.0020855896994471535,-0.15025575029850005,-9.878110843658447,-0.008577520366758108,-0.020828216679394246,-0.011706074554473162,-1.7112443416025367,0.002070094706895632,0.013536633203595157,0.7549659637960078,0.004431179803320479,-0.005219701581927526,-0.6557282654683015
5.76,0.003137570556542041,-0.15605424752339012,-9.880298252763419,-0.009715595046859862,-0.01965897545019469,-0.010974208405918931,-1.7111476403530543,0.002068454159546792,0.013546763497323085,0.754934221280069,0.004435289424498153,-0.0052226175378648635,-0.655764736252112
5.78,-0.02354641945680592,-0.13315949135984326,-9.873571409169623,-0.009731315560282772,-0.02111744493085819,-0.010870490002627096,-1.7110614841166494,0.002070836357646361,0.013538379405878057,0.754905988125316,0.004431118748604534,-0.005220958411648924,-0.6557972663295772
5.8,-0.00854218560362817,-0.12291840086968493,-9.876145833895771,-0.010575073897915786,-0.020588641576535748,-0.010559129520165574,-1.7109753278802442,0.0020732185557459297,0.013529995314433028,0.7548777549705629,0.004426948072710914,-0.005219299285432983,-0.6558297964070425
5.82,-0.012090172746079467,-0.12607373768306357,-9.86531800743324,-0.00920862014723505,-0.019670926695722808,-0.011160984459875808,-1.7108861461833358,0.0020712796256506295,0.013536170216622255,0.7548484965442055,0.004429681630152612,-0.005220790156338886,-0.655863448976577
5.84,-0.017245414659603317,-0.14610348803190448,-9.87245518945343,-0.00876756974398645,-0.019977236009429935,-0.010998652300876172,-1.710796549382305,0.002068747821140465,0.013544342665387898,0.7548190974468765,0.0044333624733757454,-0.005222713218241264,-0.6558972555560827
5.86,-0.00936642053072713,-0.147353867142618,-9.874393485060505,-0.010034791204142945,-0.020226060656733106,-0.011205339625363098,-1.7107041033361479,0.0020656310335603243,0.013548424110840182,0.7547887706137446,0.004435683812762953,-0.005223080319179526,-0.6559321486936667
5.88,-0.02620224948903408,-0.12293854691585697,-9.873986780441495,-0.010471984800318869,-0.020222108570559224,-0.01166919949198116,-1.7106069588659076,0.002061549605023733,0.013545759464736,0.75475691393813,0.00443576332132138,-0.005220881630183586,-0.6559688335727176
5.9,-0.009868333247969943,-0.15204885632973206,-9.878698607099167,-0.009238247754055632,-0.01982457189858496,-0.011568390204534516,-1.7105098143956674,0.002057468176487142,0.013543094818631817,0.7547250572625155,0.004435842829879806,-0.005218682941187646,-0.6560055184517686
5.92,-0.015469763974003427,-0.1433826770718545,-9.884533618483784,-0.010405289032889573,-0.021091260267523337,-0.01087109033229216,-1.7104383968733512,0.0020722397689465996,0.013537261391393772,0.7547016592330322,0.004428609494345501,-0.00522250140190224,-0.6560324301089886
5.94,-0.0024152529624037107,-0.14519400831124818,-9.883950493587168,-0.009618713190767535,-0.021031616297016532,-0.010453326307603938,-1.7103711987980872,0.0020901034236320416,0.013530908256017255,0.7546796484963436,0.004420176787687153,-0.00522730672839988,-0.65605773887137
5.96,-0.022675559537725765,-0.11465769338536191,-9.872253828077344,-0.012910844428694106,-0.020641321035566273,-0.012788079805426053,-1.7102985945876228,0.0021006795497710614,0.013528862420655192,0.7546558545547706,0.00441574574255257,-0.0052307870928099435,-0.6560851087269758
5.98,-0.03876671818977401,-0.1543532085743839,-9.883103479647005,-0.0066027425442958185,-0.020964146429487795,-0.01121191669677492,-1.7102165872117145,0.002098580107493286,0.013534308490906538,0.7546289589944015,0.004418274990486101,-0.005231962883387637,-0.6561160635466767
6.0,-0.004913036327699594,-0.13930098342373476,-9.869670842747954,-0.009904941012071648,-0.020718608597929275,-0.012466685239719501,-1.7101345798358063,0.0020964806652155107,0.013539754561157885,0.7546020634340326,0.0044208042384196325,-0.005233138673965331,-0.6561470183663777
6.02,-0.006559303614475118,-0.14111945203048648,-9.877604314893013,-0.009217903368012509,-0.01750742862057347,-0.011058560294863854,-1.7100659640997498,0.002088431648714335,0.013533625392228155,0.7545795437171292,0.004420953300569074,-0.005228242575431909,-0.6561729398902979
6.04,-0.03282626849307094,-0.1342909841742267,-9.886383401143885,-0.01020741749715974,-0.022771922746210243,-0.011748030827379054,-1.7099996350471474,0.002079366715336167,0.013525519698525777,0.7545577711954135,0.0044206959351629225,-0.005222309674197723,-0.6561980019560556
6.06,-0.02992071248826631,-0.13766574012627475,-9.869204694265997,-0.009747776187758947,-0.021324886425596046,-0.009830674727345324,-1.7099338887267337,0.002076092455655576,0.013523413656017662,0.7545361852396407,0.004420803583161668,-0.0052205286558400085,-0.6562228100396058
6.08,-0.0006196489060839947,-0.11140930197854951,-9.882350225124886,-0.010194197214037123,-0.016473156336994206,-0.012646655666172794,-1.7098692963219888,0.002084284782589066,0.013533188013557322,0.7545149687183516,0.004421634024058297,-0.005226969120353015,-0.6562471151922138
6.1,0.01705797247194771,-0.14522711637261682,-9.875690073693901,-0.005536247523796913,-0.022233586799402592,-0.010666726598114037,-1.7098047039172442,0.002092477109522556,0.01354296237109698,0.7544937521970623,0.0044224644649549245,-0.005233409584866021,-0.6562714203448217
6.12,0.0036653516287567236,-0.1543547929238911,-9.899315867601324,-0.010484858548215797,-0.02405033333570373,-0.010531089363581702,-1.7097290358369537,0.0021047358749116947,0.01350552563391677,0.7544690449086333,0.004404122010932091,-0.00522591531874256,-0.6563000435234043
6.14,0.007021574143011108,-0.12083469396641132,-9.875130158073818,-0.014318785395311272,-0.019802109785230733,-0.01200204416815,-1.7096510475982156,0.0021178464873503238,0.013458199006067133,0.7544436063661302,0.004381763173987088,-0.005215501972616395,-0.6563295712521791
6.16,-0.07951248263364244,-0.09784218860254582,-9.86421956320424,-0.009493747188004026,-0.019225787073867805,-0.01188994185676806,-1.7095831001088453,0.0021239567541899394,0.01344638914830152,0.7544213614942938,0.0043751251892340855,-0.00521408155895687,-0.6563552296455158
6.18,-0.004495496613020867,-0.15643349012075844,-9.875690977452164,-0.002159866614867065,-0.020471866826637316,-0.009542046493645442,-1.7095365186557427,0.0021151707585615903,0.013510156577643073,0.7544059125378613,0.00440194011579237,-0.005231797497993796,-0.6563726543544659
6.2,0.024461973890338707,-0.1563425705480851,-9.90413929347236,-0.010867556896683195,-0.020274165896834236,-0.01033560820558238,-1.7094899372026402,0.002106384762933241,0.013573924006984624,0.7543904635814287,0.004428755042350654,-0.005249513437030721,-0.656390079063416
6.22,0.014031843703864053,-0.14998094624806568,-9.859097304081839,-0.012850290132892954,-0.020510599673439336,-0.011834392571237095,-1.7094217979859911,0.0021020833256275395,0.013566546715513142,0.7543681044959558,0.004427205984152925,-0.005245619932442142,-0.656415808598153
6.24,-0.05915757859387502,-0.1331483747032384,-9.860102044577332,-0.00972908657538961,-0.02041298642703109,-0.012468740019105999,-1.7093487896085287,0.0020987947965301714,0.013543100267057533,0.7543441846488822,0.004419250472763293,-0.005236845594279552,-0.6564434139087418
6.26,-0.01123489514230307,-0.11428909980354737,-9.892720470326063,-0.006242648541348062,-0.020806299678819817,-0.0091143356122078,-1.709271139108752,0.002091876740574627,0.013532839552195593,0.7543187065359777,0.00441744758286152,-0.00523104077235147,-0.6564727471348498
6.28,0.017905057086887922,-0.13219082008302516,-9.870737825969737,-0.013585920459123955,-0.019315352796525378,-0.01274215335082297,-1.7091831052504216,0.002076840268903456,0.01355207228675882,0.7542897429412718,0.004429406690302956,-0.005231878074371785,-0.6565059453100417
6.3,-0.006287219041754076,-0.1630322434755798,-9.870364165873976,-0.004391405632797947,-0.017622002124443086,-0.012912155396847962,-1.7090950713920912,0.002061803797232285,0.013571305021322049,0.7542607793465661,0.0044413657977443914,-0.0052327153763921,-0.6565391434852335
6.32,-0.030919021880097174,-0.1557440728365772,-9.902879970262335,-0.009911538534613976,-0.021941269393519067,-0.009774347999925985,-1.7090174228777415,0.00207412745110118,0.013536445828453142,0.7542353607736051,0.004423971187555205,-0.005226089728201006,-0.6565684579220927
6.34,-0.017600250219651666,-0.10354601255213597,-9.878115732641334,-0.015861776354258873,-0.022324826730140652,-0.010940172268352304,-1.7089430315073992,0.0020950320310425758,0.013484621843893697,0.7542110540219138,0.004397370403199437,-0.005217123483145578,-0.6565965543063713
6.36,-0.03940703724609412,-0.09654774788750754,-9.858215933450913,-0.006627888845389031,-0.01810163975290963,-0.012371759518823468,-1.7088716609905557,0.0021043018483976896,0.013462857925131393,0.7541876729420302,0.0043859330390250235,-0.005213632251087878,-0.6566234853235468
6.38,-0.006711016099182305,-0.15566517923307913,-9.890428119280289,-0.0026494506789765597,-0.023019576134715534,-0.009802844883580453,-1.7088076185530638,0.0020853477007396278,0.01351401463874647,0.7541665373852948,0.004411279566013398,-0.00522342247399315,-0.6566475893573517
6.4,-0.014165411592798983,-0.1871279156936672,-9.89656289469503,-0.014616954803302556,-0.01926985132939113,-0.010731521277559664,-1.7087435761155718,0.0020663935530815655,0.013565171352361547,0.7541454018285595,0.004436626093001773,-0.005233212696898423,-0.6566716933911566
6.42,0.024000705287950796,-0.11540145317955715,-9.859420543763695,-0.010028166832720361,-0.01777734198584789,-0.01128125792687259,-1.7086800900651706,0.002065918778570922,0.013584801095101481,0.7541245074447142,0.004444017399683458,-0.0052396195573270864,-0.6566955775295923
6.44,-0.05743606316146845,-0.10127223311467527,-9.88554101295255,-0.007641616584316009,-0.02492700209383941,-0.010959873001264041,-1.708616759120122,0.002070595542866081,0.01359564198918313,0.7541036802932091,0.004446403286893458,-0.005245083229750764,-0.6567194003672727
6.46,-0.02114292401296786,-0.14754211392747352,-9.862670470241563,-0.009449933201493508,-0.017735712225717234,-0.012132283682415045,-1.7085516813406325,0.002073570697590583,0.013605479863644708,0.7540822901321653,0.004448965079125591,-0.005249580065622053,-0.6567438994196446
6.48,-0.015693105496474014,-0.12708928454891177,-9.877972108212399,-0.010121843960405578,-0.01671155784872107,-0.011853830070450239,-1.7084819982703436,0.0020720597907197156,0.013612673413653378,0.754059415673247,0.004451990620961534,-0.005251527968764323,-0.6567701812198394
6.5,0.00863429512432573,-0.1713793088697704,-9.853940911419967,-0.003840835981700835,-0.021358467698297082,-0.009783386505854079,-1.708412315200055,0.002070548883848849,0.013619866963662047,0.7540365412143286,0.004455016162797478,-0.005253475871906593,-0.6567964630200342
6.52,0.014386225665221922,-0.13979208702258736,-9.901913802210185,-0.011031928728315994,-0.021225587653218032,-0.009978280636853427,-1.7083322694526615,0.002066610260790372,0.01356752931580659,0.7540103512007681,0.0044363691993522855,-0.005234979399905018,-0.6568267796285024
6.54,-0.04973746371560616,-0.08320448626964005,-9.881972953511346,-0.018002420302557453,-0.020394979386822883,-0.013779522827419264,-1.7082491892561866,0.0020619607421708177,0.013497759455519035,0.7539831903105091,0.004411375988400722,-0.005210496307386209,-0.6568582777289862
6.56,-0.06727535178523411,-0.09666095337579413,-9.842360237507803,-0.005567888233491866,-0.021366957601275056,-0.011382144132337929,-1.7081719054816995,0.0020571514569624394,0.013476108432509725,0.7539578297271925,0.004404590253359184,-0.005201744600822547,-0.6568874684492901
6.58,0.04495820906771589,-0.17263239229741983,-9.898867951343483,0.0017121869733782344,-0.019436739299484827,-0.009224164308721668,-1.70811123991008,0.002051884124774348,0.013592412962315916,0.7539376305807173,0.004450004915222875,-0.0052380944006283625,-0.656910043965939
6.6,0.04718714670460915,-0.2038994868959862,-9.911900984930408,-0.015396033327224288,-0.019261084954024878,-0.011797966137209893,-1.7080505639406678,0.002046644703498588,0.01370852379209749,0.7539174285247491,0.0044953373628620836,-0.0052743911222653496,-0.6569326238488933
6.62,-0.036126749045759826,-0.1430612187106888,-9.82885209074268,-0.020834754871252876,-0.021551256542783472,-0.011694587054269316,-1.7079812335416098,0.0020646364649202,0.013663411634724072,0.7538948048008086,0.0044722401709896345,-0.005266509114714817,-0.6569588379534973
6.64,-0.09276055765852788,-0.08385051769468695,-9.887564365064303,-0.0038761359588625763,-0.022738826221461846,-0.009919777253880676,-1.7079119031425518,0.0020826282263418116,0.013618299477350656,0.7538721810768682,0.0044491429791171854,-0.0052586271071642845,-0.6569850520581013
6.66,-0.02411677391363938,-0.08069994778506669,-9.893231602035138,-0.009650259077418007,-0.01855377064101752,-0.014461025893144961,-1.7078368254468417,0.0020955840132870353,0.013590287969028118,0.7538476105898196,0.004434130671684608,-0.0052544769367686905,-0.6570133922580095
6.68,0.0006823366207219315,-0.15256010976614803,-9.869078306430684,-0.0075877994554336406,-0.01894533031534617,-0.01211019310051353,-1.7077440749310269,0.0020930542813248324,0.013614860608113049,0.7538170538458789,0.004443979219175936,-0.005261802089588731,-0.657048270157659
6.7,0.007166482942196929,-0.2117117751859924,-9.86520745916274,-0.005163185840960845,-0.02374686798062718,-0.009913335934064342,-1.7076513244152118,0.0020905245493626295,0.013639433247197982,0.7537864971019382,0.004453827766667264,-0.005269127242408771,-0.6570831480573085
6.72,0.02207232801667719,-0.14521136950807956,-9.89920940204737,-0.011405822963368385,-0.019212116384754032,-0.009967503136397302,-1.7075655594935244,0.002079991467996113,0.01358076604633576,0.753758434774893,0.004434953957253817,-0.005246071415716706,-0.6571156602388564
6.74,-0.02880684453442957,-0.06814488952858208,-9.877861582739113,-0.017519366941772974,-0.018958567581056844,-0.011582877183851053,-1.7074823138339958,0.00206657208448712,0.013492079497792752,0.7537312720263198,0.004405721809589319,-0.005212059090460542,-0.6571473192554503
6.76,-0.047073999002396345,-0.09393433994018888,-9.851247510565333,-0.0019011850777385106,-0.024941508449524284,-0.010577880076121494,-1.707400233538043,0.002063891290595625,0.013469758317183096,0.7537043614094484,0.004397974955968747,-0.005203897034445187,-0.6571783312219135
6.78,0.01042933790087016,-0.17968472215499687,-9.878293201731402,-0.004116665020400117,-0.01879934506653235,-0.010909508735999857,-1.7073194089101458,0.002072781223836393,0.01351894518285709,0.7536777224620628,0.004413378300241353,-0.005223588395157255,-0.657208645998078
6.8,0.028317749188534885,-0.1421472086691956,-9.901060467484605,-0.015441026109968269,-0.017698770864363993,-0.012078998037555477,-1.7072385842822484,0.0020816711570771614,0.013568132048531082,0.7536510835146771,0.004428781644513961,-0.005243279755869325,-0.6572389607742426
6.82,-0.02704159829433367,-0.1318046557272126,-9.849664276572549,-0.012687882770351164,-0.022727022677137974,-0.0111174396955509,-1.7071615611400885,0.002088725453074278,0.013583900066273124,0.7536257629325741,0.0044322034379917965,-0.005251289951120093,-0.657267934391567
6.84,-0.0683682248114126,-0.13925409569688466,-9.87140856166131,-0.00393453708117305,-0.018385242432238085,-0.011054001807827842,-1.7070859817494972,0.002095082599500763,0.013586976068984782,0.7536009430473238,0.004431074804624154,-0.005254863801709637,-0.6572963986553617
6.86,-0.009729651856049895,-0.11184235374778509,-9.899662923812866,-0.01101014084238559,-0.017900653978437184,-0.01237346505522728,-1.7070042253453728,0.002094807330786917,0.013592503594754023,0.7535740636731468,0.0044330334528589485,-0.005256758285515271,-0.6573271929954877
6.88,0.02974112431346458,-0.1427238494033442,-9.866177769794914,-0.010729207820485713,-0.02198699421621082,-0.0109336206505544,-1.7069008716133558,0.002071342466690329,0.013606602632796541,0.75353998349596,0.004445786481372769,-0.005252781026464933,-0.6573661342212035
6.9,0.009798648115507635,-0.17735897615278423,-9.873889301076282,-0.004206771404517358,-0.018855356492387565,-0.011686883418406794,-1.7067975178813388,0.002047877602593741,0.01362070167083906,0.753505903318773,0.0044585395098865905,-0.005248803767414595,-0.6574050754469194
6.92,-0.014315023971628954,-0.15160866798629344,-9.916416116832028,-0.012659756748920406,-0.019698955061258544,-0.010544279654682511,-1.706709765623759,0.0020552138674665567,0.013571303118939504,0.7534771978667548,0.004437288236417337,-0.005235523577487468,-0.6574382583533764
6.94,0.004879301892870235,-0.07656971301151214,-9.883223227752826,-0.016634924579363327,-0.021922218825439408,-0.011963192343345358,-1.7066225583077184,0.002063625980311137,0.013519686669331751,0.7534486801476984,0.004414849231830952,-0.005221918446895822,-0.6574712401283718
6.96,-0.04784166440367699,-0.1429067548012259,-9.851617424049188,-0.0043247039151836685,-0.01905490130890365,-0.011324961113729583,-1.7065421132493632,0.0020616555669278735,0.013506486530792453,0.7534222653087067,0.00441031352200957,-0.005217015915896163,-0.6575015900575596
6.98,-0.023759151990086085,-0.17419971770274761,-9.897488023308627,-0.004196552204328257,-0.019524730523151547,-0.009938206430730673,-1.706469733819926,0.002047301478198409,0.013539107140867751,0.7533983586631391,0.0044271318242206925,-0.005222493341147049,-0.6575288008736527
7.0,0.033047011794634776,-0.14833279290311635,-9.877340825669968,-0.01590930905042505,-0.0207201739977088,-0.0099530748859511,-1.7063973543904885,0.002032947389468944,0.01357172775094305,0.7533744520175716,0.004443950126431815,-0.005227970766397936,-0.6575560116897459
7.02,-0.02395100611394167,-0.1352837447532754,-9.850926910229868,-0.01063223846362299,-0.01923996834982074,-0.010737224899617481,-1.7063300157204093,0.0020108522393334346,0.013607448368822566,0.7533521954268049,0.00446449407451432,-0.005231542737559027,-0.6575813509742366
7.04,-0.018844144381695283,-0.10629845005868065,-9.888131946667444,-0.0035404864757735384,-0.0190617182126038,-0.009108479385717218,-1.706264878241059,0.0019853767348923905,0.013644522693148588,0.7533306593793276,0.004486664931673194,-0.005234282638077791,-0.6576058730013028
7.06,0.007950740418644329,-0.13954423419381187,-9.898148386618388,-0.011791294168200683,-0.018577701755774365,-0.012755600288014318,-1.7061837396757702,0.0019699442962606228,0.01366387550046419,0.7533039212379099,0.004498816649966269,-0.0052350150061551285,-0.6576364400378866
7.08,0.01831521669363952,-0.13157997201349148,-9.88130316115229,-0.009213935001960948,-0.020288016170824485,-0.01062034085093895,-1.7060822691220823,0.0019672732100967714,0.01366071023121523,0.7532705729880246,0.00449823741887401,-0.005233196476970384,-0.6576746882446024
7.1,0.030651991928748522,-0.15379793478257853,-9.880965721348831,-0.008219205549730888,-0.02287228732225577,-0.011775786370456776,-1.7059807985683944,0.0019646021239329205,0.013657544961966271,0.7532372247381394,0.00449765818778175,-0.005231377947785639,-0.6577129364513182
7.12,-0.021238276352945458,-0.11968783287971699,-9.89521433937442,-0.011736740910549746,-0.02018072495391322,-0.012630211695542803,-1.7058769368656088,0.001983974750325118,0.013620161102167891,0.7532031712709447,0.004476936748485117,-0.0052266104677508715,-0.6577520791720414
7.14,-0.048310206037318434,-0.10810675113870902,-9.877175664281976,-0.015226787161236089,-0.022624017015633595,-0.01158389937284455,-1.7057729077017902,0.0020048911796029753,0.013580380787657123,0.7531690684147684,0.0044548046756996635,-0.005221636461759084,-0.6577912845388957
7.16,-0.040382166764547096,-0.13140894315728974,-9.858859076537229,-0.006095303741235346,-0.022511166540025492,-0.012619191374318236,-1.7056730059487006,0.0020248796961684122,0.013551981705612993,0.7531362976140428,0.004437274294622141,-0.005220046886867549,-0.6578289099728066
7.18,-0.006397872405373234,-0.17162676622920417,-9.90353752329669,-0.0046050138073367415,-0.01981158744946143,-0.011259956382598782,-1.7055938332180582,0.002040207973007723,0.013580742387589037,0.753110216772023,0.004442854909026875,-0.005235454880877286,-0.6578586005372324
7.2,0.015659075932864676,-0.16251516665867669,-9.873362355050677,-0.012558575554233873,-0.020618699865792702,-0.01076485688325936,-1.7055146604874158,0.002055536249847034,0.013609503069565081,0.7530841359300032,0.0044484355234316085,-0.005250862874887022,-0.6578882911016583
7.22,-0.03134045181543635,-0.13309165177391552,-9.86865134264263,-0.012112747713640255,-0.021081750268727432,-0.01073128247827147,-1.7054405597862579,0.002066654883237461,0.013610942606478096,0.753059787946523,0.004445125885400884,-0.005255687306471051,-0.6579161656568921
7.24,-0.028626268308970235,-0.09312946661826103,-9.877059751941312,-0.007691285497839413,-0.02036718976113104,-0.011000483056470271,-1.7053689268645713,0.0020757253282811952,0.013599089129002631,0.7530362830797367,0.004437490723924158,-0.0052553623401333715,-0.6579431566387525
7.26,-0.037624011517386736,-0.11229687205965393,-9.894223957296308,-0.008652741427487889,-0.02146181259902755,-0.011817270830031285,-1.7052919910331163,0.002086148484611151,0.013598910819701718,0.753010995407507,0.004433791927744959,-0.0052593990591025975,-0.6579720965900857
7.28,0.01694868254136784,-0.14981774169668755,-9.868800092353345,-0.010043578926195364,-0.020315192949345206,-0.011933135086843745,-1.7052076046006832,0.0020984722035515204,0.013615136149764862,0.7529832028893422,0.004435623734275756,-0.005269563956417891,-0.6580037748482157
7.3,-0.018761551138657642,-0.1835184537446635,-9.882874381946271,-0.006875848754215049,-0.021185875654707895,-0.011147745594501577,-1.70512321816825,0.0021107959224918897,0.013631361479828004,0.7529554103711773,0.004437455540806552,-0.005279728853733184,-0.6580354531063456
7.32,-0.03695115480098507,-0.15583470788933962,-9.87256819452885,-0.0133121496008383,-0.0202945759988946,-0.011899295622567765,-1.7050386457682858,0.0020826082900753254,0.013601769393839506,0.7529275931551584,0.004435368439479159,-0.005259567997266952,-0.6580674477155433
7.34,-0.07393309608753343,-0.1438517129321278,-9.850821507812427,-0.011122128236231914,-0.01832034149095431,-0.010399570823962232,-1.7049540527396951,0.0020499268972488404,0.013567094967138064,0.7528997731995066,0.004432846629548044,-0.005236043227547279,-0.6580994774162858
7.36,-0.17980126809677688,-0.15169754433487836,-9.815175933492148,-0.008329149024712986,-0.012879614548313113,-0.010097070467496087,-1.704896062782339,0.00197070031300208,0.01357507098235132,0.7528805130466978,0.0044617661589460384,-0.0052089715222801555,-0.6581215102563075
7.38,-0.07964551952497999,-0.09489093226796642,-9.951830769120548,0.006893575225852926,-0.026543979445635173,0.002560202602734722,-1.7049301539885666,0.0017303669397148533,0.01373067289700476,0.7528908809243855,0.004599513540757551,-0.005169622815253099,-0.6581089409799327
7.4,0.4216542342246982,0.18013828217189096,-10.104248023725031,-0.017840554445457082,0.032744620389370156,-0.01569313910084539,-1.7049642451947942,0.0014900335664276266,0.013886274811658201,0.7529012488020732,0.004737260922569064,-0.0051302741082260425,-0.6580963717035577
7.42,0.11122650985306781,-0.688462952198965,-9.478675708013322,-0.026511649006056442,-0.022288505535989676,-0.034142019563364635,-1.7048144696511487,0.0018027014160494638,0.01379343159252742,0.7528527674905043,0.0045990181728478245,-0.0052177418926504845,-0.6581521004558661
7.44,-0.5318789921769308,-0.38269202778463335,-9.92320285937108,-0.003816912574010021,-0.10165306203044518,-0.012200929814043943,-1.704588163250985,0.00234554496233321,0.013597178056417199,0.7527797913811412,0.004345900051851305,-0.00535799450477298,-0.6582362568963632
7.46,0.1830561590729723,0.4168795597168707,-10.130435869082781,0.013884785252956715,0.02951032587218275,0.012336545478663793,-1.7044024723734421,0.0025293128323732633,0.013609290557667629,0.7527190143389959,0.004289487944969517,-0.005431586543884285,-0.6583055938465763
7.48,-0.08439292176106972,-0.048074115006650084,-9.598701220690769,-0.07398974365710553,-0.06744855719024534,-0.03505769188113182,-1.7042662225644558,0.002275979712928201,0.01387504597357659,0.7526730871591625,0.0044725250659125365,-0.0054240330074232105,-0.6583568911068429
7.5,-0.32210279211761633,-0.46864498625347273,-9.735376949355992,0.0869581603723291,0.03681897955152246,-0.009242548958402005,-1.7041299727554695,0.002022646593483139,0.01414080138948555,0.7526271599793289,0.004655562186855556,-0.005416479470962136,-0.6584081883671096
7.52,0.09938747904490579,-0.03809353739059018,-10.295585679683295,-0.04919207950813034,-0.06889912804299991,0.004772772015832158,-1.7040827170679245,0.0019799057497552337,0.013854426407662162,0.7526121712630095,0.00456174098523596,-0.005306217186429805,-0.6584268503841851
7.54,0.26486533816874497,-0.2550035977574784,-9.566426986784446,-0.05293178490590392,0.01424299520770396,-0.01945896263960309,-1.7040739021002662,0.002028129551219683,0.013329560505131444,0.752610546314885,0.004348331736074283,-0.005151590193863259,-0.6584314157146302
7.56,-0.17807183077513208,-0.01993393551544148,-9.848245770897503,0.029970676672064066,-0.012926437869558119,-0.018295461870692798,-1.704058141142546,0.002044295341797831,0.013089339322277361,0.7526059372638555,0.004252571955369702,-0.005078624420517465,-0.6584379385313142
7.58,-0.3145865891660963,-0.19919377847441605,-10.028758776187896,-0.009926364068607134,-0.0635311307585133,0.0022850752375753874,-1.7040313987260247,0.0020097781163264153,0.013299135233339709,0.7525966104112143,0.0043428134184472725,-0.005134763253788452,-0.6584475560910507
7.6,0.16670331206010347,0.0671152717239115,-9.918802416739299,-0.030848739164524297,0.025216618857783278,-0.011425086609149327,-1.7040046563095035,0.0019752608908549995,0.013508931144402058,0.7525872835585731,0.004433054881524842,-0.005190902087059438,-0.6584571736507873
7.62,0.24002083112800177,-0.11644635198507225,-9.721049322306893,0.00833797293107762,-0.029315738833422936,-0.01675210007208535,-1.7039046179413802,0.0020221022601692755,0.013787969855938333,0.7525538009938874,0.004522359794058313,-0.00530062819843691,-0.6584939332761042
7.64,-0.09266722341863651,-0.43738777436523923,-9.950868910225864,0.028044792169511865,-0.03881348957459302,-0.008822209370097162,-1.703798811880393,0.00207534577552704,0.01407245731597207,0.7525184176048733,0.004611591008989505,-0.005414571117902262,-0.6585328287233121
7.66,0.06398515255330375,-0.11575788121146922,-10.0587615889545,-0.04248570795474614,-0.01024914775933933,-0.00717086576411192,-1.7036866617341102,0.0020920827428448276,0.014156279562131365,0.7524813350524192,0.0046373243217185155,-0.005448719757541598,-0.658574757584173
7.68,-0.06265918470486942,0.1085114065971807,-9.727466979280708,-0.053032527132950515,-0.028190184521105492,-0.020518522107331443,-1.703566178784064,0.0020608692355537153,0.013976532866295945,0.7524420206895707,0.004579654664001514,-0.005378060525876783,-0.6586206707610582
7.7,-0.16250315515962688,-0.1227203323376748,-9.748200495491005,0.04353961353000756,-0.016735126137519624,-0.010514602917318837,-1.7034456958340176,0.002029655728262603,0.013796786170460526,0.7524027063267221,0.004521985006284513,-0.005307401294211967,-0.6586665839379435
7.72,0.015071519174295459,-0.3622068559392913,-10.038280498635185,0.006950082635774561,-0.015900494193178676,-0.008680989760668318,-1.7033673963375304,0.0020121441062363804,0.013601993582544582,0.7523773315895249,0.004454264418793662,-0.005236837069952664,-0.65869661230257
7.74,0.12804954592267853,-0.13264852165111685,-9.921828640947453,-0.05431121388075962,-0.020829015374671394,-0.01084415945472952,-1.703311791045988,0.002002003938325289,0.013399106480556401,0.7523594562079919,0.004381136548566896,-0.005166323958567012,-0.6587180948238742
7.76,-0.03007800816833317,-0.013144022645568616,-9.732614248006552,-0.01531585932329849,-0.02138260105089681,-0.012190648873482977,-1.7032554020570727,0.0020094875972897883,0.01337497223449913,0.7523409491542192,0.0043694432917606545,-0.005161317293555565,-0.6587393455753621
7.78,-0.11232395860000055,-0.1519117945532619,-9.920971642903735,0.027560970506689035,-0.027087049561733613,-0.0052722879499717615,-1.7031979283726995,0.0020413639435653474,0.013598245237245508,0.7523215678190812,0.00444278010962669,-0.00524697642289993,-0.6587602755401843
7.8,0.07881661723361923,-0.041737420835474985,-10.027806807860605,-0.02742305015891932,-0.012194949729156373,-0.013360712509700862,-1.703140454688326,0.002073240289840907,0.013821518239991885,0.7523021864839431,0.0045161169274927256,-0.005332635552244294,-0.6587812055050065
7.82,0.000378462766920511,-0.11497218594316316,-9.784575250455799,-0.026204844877502877,-0.022736042071302646,-0.015760436054986914,-1.7029999995547398,0.002113972653783641,0.013866935515685542,0.7522558731223816,0.004519404763459535,-0.005363232803257752,-0.658833776357121
7.84,0.0015846173714241536,-0.2867876435553776,-9.786570318165229,0.021941094321758583,-0.02401492410297341,-0.011245408868367538,-1.7028481429663482,0.002155921813602393,0.013887915835250935,0.7522058593641049,0.004513068035034366,-0.005386264682453222,-0.658890694592294
7.86,-0.06969384269725375,-0.15177079296607904,-10.062408306225402,-0.01734402423034783,-0.022071880418086314,-0.009052806691514627,-1.7026983558058162,0.0021863130588467275,0.013861758955275843,0.7521566145471499,0.0044928193777773046,-0.005389412476565392,-0.6589469974053339
7.88,-0.009703688728245924,-0.022629197608737252,-9.806778005535262,-0.04274902825984774,-0.02216467746573819,-0.013230808198877201,-1.7025601813850915,0.002151846254537101,0.013571088368788436,0.7521116846984375,0.004394502954595815,-0.005280979330416723,-0.6589998467338429
7.9,-0.13771444771669927,-0.038301269406937156,-9.77256828916268,0.011364093371496662,-0.018682078036648453,-0.014014679179796909,-1.7024220069643667,0.0021173794502274746,0.013280417782301029,0.7520667548497251,0.004296186531414327,-0.005172546184268056,-0.6590526960623518
7.92,-0.0009479844731695025,-0.22380055182235686,-9.962342863977318,0.017177982316505566,-0.020383982865840887,-0.006356957075316527,-1.7023501619319577,0.002128932521772512,0.013338784644679306,0.7520429877456309,0.004314137195239992,-0.005196281982925998,-0.6590795389214652
7.94,0.1348532025906252,-0.21307007540588363,-9.953196537420617,-0.03075597195118588,-0.021043564568950523,-0.011130402790932229,-1.7022862354412889,0.0021459795427885286,0.01343882033105884,0.7520217470944539,0.004345968068199045,-0.005235796387912507,-0.6591032770736205
7.96,0.06132652975753218,-0.11366522991824485,-9.782206797934247,-0.02329189259118451,-0.014015189782979493,-0.01783245632309235,-1.7021870399090187,0.0021687637786364077,0.013529704323090488,0.7519888990935013,0.0043723702103867675,-0.0052745312015285315,-0.6591402698847645
7.98,-0.07632114172793408,-0.1169235062810436,-9.871878774060121,0.009139230185026855,-0.026933664583567864,-0.011640463161633212,-1.7020320847911685,0.002200618426009018,0.01360611968594986,0.7519377001257013,0.004390189647621647,-0.0053120334981901374,-0.6591982180226955
8.0,-0.046357913774922745,-0.1545216034661644,-9.936733642641727,-0.014478898806763547,-0.02257501227021014,-0.011665813090557083,-1.7018771296733184,0.0022324730733816285,0.01368253504880923,0.7518865011579011,0.004408009084856528,-0.0053495357948517425,-0.6592561661606264
8.02,-0.07031512908234544,-0.06251540516615642,-9.857763573521277,-0.022937592452270027,-0.017104729947919232,-0.012962702871574867,-1.7017548519435735,0.0022332757217669893,0.013684179387621865,0.7518461874052096,0.0044080368054406445,-0.005350648418352869,-0.659302124375347
8.04,0.01087510966696216,-0.17904001610277184,-9.79578659782273,0.0066251205451963065,-0.021111709242653248,-0.01133318837140125,-1.701637435468004,0.0022294589171151886,0.01367470040924432,0.7518074929923877,0.004405417739917612,-0.005346347529304562,-0.6593462989082114
8.06,-0.028346853731676176,-0.24889150704331578,-9.950611160586055,0.0013971579550860667,-0.02118624698894378,-0.008192820462045638,-1.7015281019981412,0.0022179995833319166,0.01360699330875001,0.7517715792212188,0.004383455580054801,-0.005319956529779939,-0.6593876132875877
8.08,-0.0004901896759867668,-0.10844179621189833,-9.902277618598937,-0.03230807138159871,-0.01647225071825087,-0.012149127046577633,-1.7014325966250572,0.0021934657032356285,0.013439671765675355,0.7517404224653582,0.0043284019947709175,-0.005255774614772524,-0.6594240346258518
8.1,-0.04008153947489756,-0.015365897430185307,-9.813391620761998,-0.01001792868582515,-0.020481864607951664,-0.012360406725726148,-1.701337091251973,0.0021689318231393404,0.013272350222600699,0.7517092657094977,0.004273348409487035,-0.005191592699765109,-0.6594604559641158
8.12,0.024751192655320428,-0.10318780333555046,-9.899771337749577,0.010261920398148168,-0.021712316027959856,-0.009816189038277674,-1.7012183261204334,0.0021732935110089758,0.013360553337081686,0.7516699066861705,0.004304746782412927,-0.005222575394212863,-0.6595048369934648
8.14,0.061561872467511755,-0.22363862651279343,-9.92939128982416,-0.012401086280864332,-0.019726917432651633,-0.013390950915521614,-1.7010963320120625,0.0021816665526367776,0.013484229012496546,0.751629409003916,0.004348146628640006,-0.005266769073619716,-0.6595503230066918
8.16,-0.0009450386831044979,-0.18065803834816588,-9.848358518409917,-0.023506353591761297,-0.022175036908728903,-0.012990174932049774,-1.7009780762463915,0.0021938494160934786,0.01355751291253905,0.7515902692207255,0.004371360161407697,-0.0052957694109823815,-0.65959453309949
8.18,-0.0833784137903085,-0.10138234212185056,-9.84711837653423,-0.0034975136109296106,-0.020584874567191606,-0.009352153926802952,-1.7008665566202288,0.002212897217678969,0.013539995605683374,0.7515535762430495,0.004358199869054255,-0.005297392784857745,-0.6596364441045107
8.2,-0.06358847502629389,-0.10551069367249238,-9.901357641663397,-0.00829678007546201,-0.02043982613557949,-0.01125139409671014,-1.700755036994066,0.0022319450192644593,0.013522478298827698,0.7515168832653736,0.004345039576700813,-0.005299016158733109,-0.6596783551095315
8.22,-0.05332863955816777,-0.12119216603164995,-9.867874133006818,-0.014307723613502134,-0.018243336419333532,-0.011596644468154192,-1.7006542686663468,0.002208690055160232,0.013548183049278198,0.7514835420940504,0.004362101939808846,-0.00529897802904662,-0.6597162146559926
8.24,0.01673942218933787,-0.1815522951739175,-9.83481402624221,-0.001647679312598138,-0.01901864770445086,-0.00957407560642986,-1.7005553192476477,0.002178278292043609,0.013581200124868655,0.751450767982682,0.004384277383994016,-0.005298658805515399,-0.6597533887750557
8.26,0.06556912237919589,-0.20218452450504298,-9.921873638693043,-0.004572078522121215,-0.021425044937598833,-0.009366895076426619,-1.7004493724030454,0.0021609371625603904,0.013566209168426706,0.7514158181172703,0.004384086737903623,-0.005287427256094931,-0.6597932842232747
8.28,0.041110045637874376,-0.10769315779840188,-9.90708410306497,-0.02233706343631791,-0.020423459959236136,-0.012551777636691113,-1.7003303845367435,0.002167955621761649,0.013461746198105345,0.7513768133242202,0.0043422126681267,-0.0052558585311626585,-0.6598382513811576
8.3,-0.03326699468618257,-0.06373931056376944,-9.843275756683806,-0.010839377618130159,-0.02107730108394045,-0.011947494679885514,-1.7002113966704413,0.002174974080962908,0.013357283227783984,0.7513378085311703,0.004300338598349777,-0.005224289806230386,-0.6598832185390405
8.32,-0.043135334236230775,-0.13180400783365423,-9.879763940954398,0.0010848714848575385,-0.02169853748657958,-0.011915252298087235,-1.7000878909200419,0.0021974142271078195,0.013391976913076725,0.7512970106089816,0.00430564065683283,-0.005244434654024293,-0.6599294474799653
8.34,-0.020510090988622654,-0.19017592871109226,-9.898272844759262,-0.011362658257525835,-0.02072414227252165,-0.01108462159059621,-1.6999635246202904,0.002222791837432474,0.013453176628010249,0.7512558711383854,0.004319928644508259,-0.005274429706146996,-0.6599759167605171
8.36,-0.018220900470514008,-0.1354257054604763,-9.852066965703099,-0.017012137430992644,-0.02030374993457222,-0.011514910573472838,-1.6998432733732276,0.0022355311809099357,0.013498083153377522,0.7512161016749593,0.004332276783551394,-0.005294293161695639,-0.6600209194197046
8.38,-0.05911763205700448,-0.10130016541490637,-9.862952349141214,-0.005344956863573092,-0.02019596540507937,-0.009560564507136415,-1.6997311926465128,0.002223176989929341,0.013510639221300302,0.7511790523884802,0.004340773313897986,-0.005294040127315702,-0.6600630100725083
8.4,-0.05526126753973576,-0.13890161324101438,-9.893773420399686,-0.006053212545024417,-0.018038962342539114,-0.010145173938682984,-1.699619111919798,0.002210822798948747,0.013523195289223083,0.751142003102001,0.004349269844244578,-0.0052937870929357644,-0.660105100725312
8.42,-0.004772394131991693,-0.12269686448575255,-9.884266605069008,-0.010993762688446361,-0.01830078838417244,-0.011052438648186851,-1.6994888401510602,0.0022034790261054233,0.013537060715119202,0.7510989816659964,0.004356556117231284,-0.005295889754097667,-0.6601540280396714
8.44,0.04947791179740819,-0.12665910457605004,-9.859228155250898,-0.007352296279868777,-0.02033363057552117,-0.011870882618279987,-1.699354801500484,0.0021971727778338284,0.013551197274288692,0.7510547235563831,0.004363591778050583,-0.0052984802172635565,-0.6602043710451284
8.46,0.024657655616740246,-0.1915023344082313,-9.88719337055614,-0.005439623067626259,-0.022300436540500266,-0.011724860870561281,-1.6992174948882572,0.0022030564068041586,0.013538609186009928,0.751009440680371,0.004356559519628686,-0.005296830990233886,-0.6602559538330749
8.48,-0.01590943561248239,-0.1383775238364612,-9.897584397009563,-0.016323519866155947,-0.02169600414464118,-0.012447288711516076,-1.6990732693248056,0.0022347485289874415,0.013469439487547705,0.7509619881617842,0.0043197425643594686,-0.005286205461518352,-0.6603101614971649
8.5,-0.05539724606572271,-0.08677118320892402,-9.852253746862461,-0.013002842780528833,-0.022661881417822525,-0.0109214254668722,-1.6989290437613542,0.0022664406511707248,0.01340026978908548,0.7509145356431973,0.00428292560909025,-0.0052755799328028175,-0.6603643691612548
8.52,-0.021605895652354688,-0.0747674107847585,-9.830439139416542,-0.004172523021268783,-0.01477651670464138,-0.014703642121816988,-1.6989389044302603,0.002503844614940392,0.014565639934119998,0.7509154537919077,0.004642128845902746,-0.0057494581193219515,-0.6603563912460381
8.54,-0.23495672319184885,-0.03245208338647337,-9.35522848333155,0.03031663878138859,-0.02991257603359329,-0.024021830956835848,-1.698983764929341,0.002787974878719434,0.016011428934267102,0.750927359068507,0.0050912858654546264,-0.0063333886284450075,-0.6603342882225508
8.56,-0.16299950058693083,0.328506074671691,-10.468421917750208,0.3053643948450426,0.31004347302657964,0.030481531600026472,-1.702037381825886,0.002147347169116746,0.017187300218139707,0.7519232555296657,0.0057512104507854295,-0.006468530597289571,-0.6591801064743692
8.58,0.20914063925745935,0.2906338435138968,-9.668880793308944,-0.08075405147340235,0.10389250804711256,0.5259732652861789,-1.7120582250751797,-0.0006346962189003975,0.017738136578119363,0.7551977310468462,0.006899198921858935,-0.00556443544235927,-0.6554044267774922
8.6,-1.4454201939821243,0.19748591628074644,-10.465032211875915,-0.08514919634535908,-0.02842586934864521,0.8951584506869316,-1.7220790683244735,-0.0034167396069175408,0.01828897293809902,0.7584722065640266,0.00804718739293244,-0.0046603402874289684,-0.6516287470806152
8.62,-1.9732651835504598,-1.045928911980633,-10.372082262516859,-0.056145330755607445,0.40310371637088793,0.7644159119279267,-1.7361167160447446,-0.009756089776924468,0.015234445156283772,0.7629881361378574,0.008922812454722246,-0.0011924721585446479,-0.6462713188814722
8.64,-1.5009268023955555,-0.42661488799190034,-10.24645912126908,-0.39538032101848863,0.3607131857139315,0.7275837890824323,-1.751244748704054,-0.017061091565437204,0.011201220306098261,0.767841065636793,0.009724502884748455,0.0029713470573570705,-0.6404845158504997
8.66,-1.998453409697931,-0.20043558442699588,-9.953399758609912,-0.23012817551642806,0.5561777301466952,0.6491614639461932,-1.7651845363925855,-0.0277609140848848,0.009292003140084496,0.7722265897650362,0.01238119463411567,0.0077952313785259585,-0.6351166775759036
8.68,-0.47424101978841454,-0.2541872089980829,-9.726965360930471,0.18904765059550604,1.0662001194135107,0.566799505864731,-1.776098934403746,-0.047104287259691374,0.012790720432351979,0.7754220534104523,0.019760903927053257,0.01429970864736547,-0.6308155651703791
8.7,0.7910184812968011,0.4440083157298886,-9.085952995624263,0.40219893854828903,1.1047709537334522,0.37703507305583045,-1.7870133324149065,-0.06644766043449796,0.01628943772461946,0.7786175170558686,0.027140613219990842,0.02080418591620498,-0.6265144527648546
